# Data format: "%int(Month)/%int(Day)/%int(Year) %int(Hours):%int(Minutes):%float(Seconds) %float(StepIndex),%float(StepHeading),%float(StepDistanceX),%float(StepDistanceY),%float(StepDistance),%float(StepTime),%float(StepAmplitude),%float(StepDutyCucle),%float(StepRatio),%float(Altitude),%float(Confidence),%float(AltitudeOffset) %int(BatteryLevel) %float(RawGyroX),%float(RawGyroY),%float(RawGyroZ) %float(RawAccelX),%float(RawAccelY),%float(RawAccelZ) %float(RawCompassX),%float(RawCompassY),%float(RawCompassZ) %float(CorrectedGyroX),%float(CorrectedGyroY),%float(CorrectedGyroZ) %float(CorrectedAccelX),%float(CorrectedAccelY),%float(CorrectedAccelZ) %float(CorrectedCompassX),%float(CorrectedCompassY),%float(CorrectedCompassZ) %float(LinearAccelX),%float(LinearAccelY),%float(LinearAccelZ)"
06/13/24 12:28:56.663078 0.00000,0.00000,0.00000,0.00000,0.00000,0.00000,0.00000,0.00000,0.00000,0.00000,0.00000,0.00000 100 -0.49292,-0.01703,-0.03833 0.22327,1.06958,0.08008 -0.44700,0.16650,0.14550 -0.49292,-0.01703,-0.03833 0.22327,1.06958,0.08008 -0.41977,0.15835,0.14381 -0.06675,0.03572,0.35083
06/13/24 12:28:56.677891 0.00000,0.00000,0.00000,0.00000,0.00000,0.00000,0.00000,0.00000,0.00000,0.00000,0.00000,0.00000 100 -0.73991,-0.00958,-0.23422 0.21332,0.99225,0.12708 -0.43800,0.16350,0.14550 -0.73991,-0.00958,-0.23422 0.21332,0.99225,0.12708 -0.43580,0.16376,0.14415 -0.09772,-0.01506,0.25799
06/13/24 12:28:56.721207 0.00000,0.00000,0.00000,0.00000,0.00000,0.00000,0.00000,0.00000,0.00000,0.00000,0.00000,0.00000 100 -0.64303,0.18631,-0.49079 0.07184,0.78253,0.26318 -0.40800,0.13650,0.13800 -0.64303,0.18631,-0.49079 0.07184,0.78253,0.26318 -0.41021,0.13823,0.13886 -0.01616,-0.25026,0.35272
06/13/24 12:28:56.759823 0.00000,0.00000,0.00000,0.00000,0.00000,0.00000,0.00000,0.00000,0.00000,0.00000,0.00000,0.00000 100 0.46630,-0.03087,1.40317 0.36316,0.95325,0.04633 -0.41400,0.13200,0.14100 0.46630,-0.03087,1.40317 0.36316,0.95325,0.04633 -0.40887,0.13103,0.13971 -0.10680,0.00958,0.10979
06/13/24 12:28:56.803177 0.00000,0.00000,0.00000,0.00000,0.00000,0.00000,0.00000,0.00000,0.00000,0.00000,0.00000,0.00000 100 -0.00745,-0.00639,-0.02449 0.19037,0.93481,0.18054 -0.42450,0.12450,0.14550 -0.00745,-0.00639,-0.02449 0.19037,0.93481,0.18054 -0.42495,0.12502,0.14434 -0.08662,-0.08161,0.30292
06/13/24 12:28:56.841736 0.00000,0.00000,0.00000,0.00000,0.00000,0.00000,0.00000,0.00000,0.00000,0.00000,0.00000,0.00000 100 -0.02662,0.01278,-0.01384 0.21423,0.94659,0.15234 -0.41850,0.12900,0.14550 -0.02662,0.01278,-0.01384 0.21423,0.94659,0.15234 -0.41894,0.12942,0.14556 -0.10069,-0.06230,0.27517
06/13/24 12:28:56.885483 0.00000,0.00000,0.00000,0.00000,0.00000,0.00000,0.00000,0.00000,0.00000,0.00000,0.00000,0.00000 100 -0.00319,-0.00852,0.00639 0.22418,0.94269,0.15845 -0.42150,0.12600,0.14700 -0.00319,-0.00852,0.00639 0.22418,0.94269,0.15845 -0.42157,0.12598,0.14652 -0.08991,-0.06083,0.27186
06/13/24 12:28:56.928963 0.00000,0.00000,0.00000,0.00000,0.00000,0.00000,0.00000,0.00000,0.00000,0.00000,0.00000,0.00000 100 -0.01597,0.00319,0.00958 0.22986,0.95221,0.15210 -0.42000,0.12750,0.14400 -0.01597,0.00319,0.00958 0.22986,0.95221,0.15210 -0.42193,0.12977,0.14492 -0.09571,-0.05059,0.26856
06/13/24 12:28:56.967526 0.00000,0.00000,0.00000,0.00000,0.00000,0.00000,0.00000,0.00000,0.00000,0.00000,0.00000,0.00000 100 -0.01916,-0.00958,0.00745 0.23407,0.95343,0.14941 -0.42600,0.13050,0.14100 -0.01916,-0.00958,0.00745 0.23407,0.95343,0.14941 -0.42441,0.13031,0.14294 -0.09647,-0.04795,0.26540
06/13/24 12:28:57.010803 0.00000,0.00000,0.00000,0.00000,0.00000,0.00000,0.00000,0.00000,0.00000,0.00000,0.00000,0.00000 100 -0.00319,-0.02662,0.01810 0.23181,0.95032,0.14624 -0.42450,0.13500,0.13950 -0.00319,-0.02662,0.01810 0.23181,0.95032,0.14624 -0.42126,0.13469,0.14189 -0.09929,-0.05230,0.26502
06/13/24 12:28:57.049397 0.00000,0.00000,0.00000,0.00000,0.00000,0.00000,0.00000,0.00000,0.00000,0.00000,0.00000,0.00000 100 -0.00106,0.00426,0.00426 0.22845,0.95319,0.15137 -0.42300,0.13200,0.14700 -0.00106,0.00426,0.00426 0.22845,0.95319,0.15137 -0.42078,0.13008,0.14727 -0.09815,-0.05134,0.27217
06/13/24 12:28:57.087894 0.00000,0.00000,0.00000,0.00000,0.00000,0.00000,0.00000,0.00000,0.00000,0.00000,0.00000,0.00000 100 -0.00639,0.01597,-0.00639 0.23004,0.95062,0.15070 -0.42150,0.13050,0.14700 -0.00639,0.01597,-0.00639 0.23004,0.95062,0.15070 -0.42325,0.13152,0.14605 -0.09693,-0.05294,0.27016
06/13/24 12:28:57.131081 0.00000,0.00000,0.00000,0.00000,0.00000,0.00000,0.00000,0.00000,0.00000,0.00000,0.00000,0.00000 100 0.00000,-0.02023,0.00106 0.23755,0.95148,0.14557 -0.42300,0.12600,0.14400 0.00000,-0.02023,0.00106 0.23755,0.95148,0.14557 -0.42308,0.12700,0.14452 -0.09754,-0.04898,0.26263
06/13/24 12:28:57.174774 0.00000,0.00000,0.00000,0.00000,0.00000,0.00000,0.00000,0.00000,0.00000,0.00000,0.00000,0.00000 100 0.00000,-0.00745,0.00532 0.23499,0.95044,0.14941 -0.42900,0.13050,0.15000 0.00000,-0.00745,0.00532 0.23499,0.95044,0.14941 -0.42868,0.13052,0.14940 -0.09550,-0.05105,0.26694
06/13/24 12:28:57.212826 0.00000,0.00000,0.00000,0.00000,0.00000,0.00000,0.00000,0.00000,0.00000,0.00000,0.00000,0.00000 100 -0.01490,-0.00532,0.00958 0.23663,0.94659,0.14520 -0.42450,0.12750,0.14550 -0.01490,-0.00532,0.00958 0.23663,0.94659,0.14520 -0.42471,0.12801,0.14556 -0.09688,-0.05402,0.26242
06/13/24 12:28:57.256519 0.00000,0.00000,0.00000,0.00000,0.00000,0.00000,0.00000,0.00000,0.00000,0.00000,0.00000,0.00000 100 -0.00958,0.00213,0.02874 0.23920,0.94751,0.15173 -0.42300,0.12600,0.13950 -0.00958,0.00213,0.02874 0.23920,0.94751,0.15173 -0.42378,0.12631,0.13957 -0.09085,-0.05178,0.26577
06/13/24 12:28:57.294518 0.00000,0.00000,0.00000,0.00000,0.00000,0.00000,0.00000,0.00000,0.00000,0.00000,0.00000,0.00000 100 0.01171,-0.01490,0.01703 0.23651,0.94861,0.15063 -0.42750,0.13500,0.14550 0.01171,-0.01490,0.01703 0.23651,0.94861,0.15063 -0.42716,0.13400,0.14528 -0.09331,-0.05248,0.26831
06/13/24 12:28:57.338203 0.00000,0.00000,0.00000,0.00000,0.00000,0.00000,0.00000,0.00000,0.00000,0.00000,0.00000,0.00000 100 -0.00106,-0.01384,0.00852 0.23553,0.94788,0.14661 -0.42150,0.13200,0.14250 -0.00106,-0.01384,0.00852 0.23553,0.94788,0.14661 -0.42181,0.13131,0.14253 -0.09666,-0.05410,0.26716
06/13/24 12:28:57.376713 0.00000,0.00000,0.00000,0.00000,0.00000,0.00000,0.00000,0.00000,0.00000,0.00000,0.00000,0.00000 100 0.00426,-0.00852,0.00106 0.23193,0.94446,0.14996 -0.42600,0.13050,0.14850 0.00426,-0.00852,0.00106 0.23193,0.94446,0.14996 -0.42582,0.13020,0.14838 -0.09451,-0.05874,0.27090
06/13/24 12:28:57.419926 0.00000,0.00000,0.00000,0.00000,0.00000,0.00000,0.00000,0.00000,0.00000,0.00000,0.00000,0.00000 100 -0.01278,-0.00852,0.00639 0.23553,0.94910,0.15167 -0.42600,0.12900,0.14850 -0.01278,-0.00852,0.00639 0.23553,0.94910,0.15167 -0.42581,0.12809,0.14835 -0.09304,-0.05297,0.27155
06/13/24 12:28:57.458450 0.00000,0.00000,0.00000,0.00000,0.00000,0.00000,0.00000,0.00000,0.00000,0.00000,0.00000,0.00000 100 -0.00958,0.00532,-0.00106 0.23492,0.94922,0.14990 -0.42750,0.12900,0.14250 -0.00958,0.00532,-0.00106 0.23492,0.94922,0.14990 -0.42782,0.12848,0.14292 -0.09449,-0.05336,0.27133
06/13/24 12:28:57.501808 0.00000,0.00000,0.00000,0.00000,0.00000,0.00000,0.00000,0.00000,0.00000,0.00000,0.00000,0.00000 100 -0.00213,0.01916,-0.00319 0.23260,0.95233,0.14655 -0.43050,0.12600,0.14550 -0.00213,0.01916,-0.00319 0.23260,0.95233,0.14655 -0.42881,0.12926,0.14687 -0.09957,-0.05229,0.27286
06/13/24 12:28:57.540157 0.00000,0.00000,0.00000,0.00000,0.00000,0.00000,0.00000,0.00000,0.00000,0.00000,0.00000,0.00000 100 0.00532,0.00426,-0.00319 0.23859,0.94897,0.15063 -0.42450,0.13200,0.15000 0.00532,0.00426,-0.00319 0.23859,0.94897,0.15063 -0.42412,0.13212,0.14942 -0.09224,-0.05204,0.27023
06/13/24 12:28:57.584000 0.00000,0.00000,0.00000,0.00000,0.00000,0.00000,0.00000,0.00000,0.00000,0.00000,0.00000,0.00000 100 -0.00319,0.01171,-0.00852 0.23932,0.95166,0.15192 -0.42600,0.12750,0.14700 -0.00319,0.01171,-0.00852 0.23932,0.95166,0.15192 -0.42446,0.12820,0.14832 -0.09151,-0.04941,0.27207
06/13/24 12:28:57.622013 0.00000,0.00000,0.00000,0.00000,0.00000,0.00000,0.00000,0.00000,0.00000,0.00000,0.00000,0.00000 100 -0.01171,0.00213,0.00639 0.24048,0.94702,0.15228 -0.42300,0.12900,0.14100 -0.01171,0.00213,0.00639 0.24048,0.94702,0.15228 -0.42338,0.12873,0.14209 -0.08880,-0.05284,0.26995
06/13/24 12:28:57.665680 0.00000,0.00000,0.00000,0.00000,0.00000,0.00000,0.00000,0.00000,0.00000,0.00000,0.00000,0.00000 100 -0.00852,-0.00426,0.01278 0.23499,0.94965,0.15393 -0.42750,0.13350,0.14250 -0.00852,-0.00426,0.01278 0.23499,0.94965,0.15393 -0.42652,0.13186,0.14322 -0.09097,-0.05344,0.27657
06/13/24 12:28:57.703735 0.00000,0.00000,0.00000,0.00000,0.00000,0.00000,0.00000,0.00000,0.00000,0.00000,0.00000,0.00000 100 -0.01171,0.01810,0.00000 0.23346,0.95215,0.15100 -0.42300,0.12750,0.14400 -0.01171,0.01810,0.00000 0.23346,0.95215,0.15100 -0.42352,0.12894,0.14452 -0.09475,-0.05236,0.27731
06/13/24 12:28:57.747421 0.00000,0.00000,0.00000,0.00000,0.00000,0.00000,0.00000,0.00000,0.00000,0.00000,0.00000,0.00000 100 -0.00745,0.01703,0.00639 0.23145,0.94836,0.14966 -0.43050,0.12750,0.14700 -0.00745,0.01703,0.00639 0.23145,0.94836,0.14966 -0.42867,0.12952,0.14638 -0.09531,-0.05685,0.27703
06/13/24 12:28:57.785934 0.00000,0.00000,0.00000,0.00000,0.00000,0.00000,0.00000,0.00000,0.00000,0.00000,0.00000,0.00000 100 -0.00852,0.01490,-0.01490 0.23523,0.95007,0.15100 -0.42150,0.12450,0.13650 -0.00852,0.01490,-0.01490 0.23523,0.95007,0.15100 -0.42265,0.12535,0.13783 -0.09286,-0.05350,0.27619
06/13/24 12:28:57.829136 0.00000,0.00000,0.00000,0.00000,0.00000,0.00000,0.00000,0.00000,0.00000,0.00000,0.00000,0.00000 100 0.01171,0.00532,-0.00106 0.24005,0.95428,0.14850 -0.42000,0.12900,0.14100 0.01171,0.00532,-0.00106 0.24005,0.95428,0.14850 -0.42052,0.12867,0.14161 -0.09360,-0.04771,0.27333
06/13/24 12:28:57.872822 0.00000,0.00000,0.00000,0.00000,0.00000,0.00000,0.00000,0.00000,0.00000,0.00000,0.00000,0.00000 100 -0.00426,-0.01278,0.00532 0.23151,0.94379,0.15161 -0.42300,0.13500,0.14400 -0.00426,-0.01278,0.00532 0.23151,0.94379,0.15161 -0.42255,0.13391,0.14412 -0.09141,-0.06098,0.27785
06/13/24 12:28:57.910873 0.00000,0.00000,0.00000,0.00000,0.00000,0.00000,0.00000,0.00000,0.00000,0.00000,0.00000,0.00000 100 -0.01490,-0.00106,0.01171 0.23584,0.95441,0.14832 -0.42600,0.12450,0.14850 -0.01490,-0.00106,0.01171 0.23584,0.95441,0.14832 -0.42573,0.12526,0.14850 -0.09558,-0.05000,0.27725
06/13/24 12:28:57.954731 0.00000,0.00000,0.00000,0.00000,0.00000,0.00000,0.00000,0.00000,0.00000,0.00000,0.00000,0.00000 100 -0.01278,0.00639,0.00213 0.23663,0.95136,0.15521 -0.42600,0.13050,0.14550 -0.01278,0.00639,0.00213 0.23663,0.95136,0.15521 -0.42464,0.13118,0.14599 -0.08844,-0.05185,0.27992
06/13/24 12:28:57.992600 0.00000,0.00000,0.00000,0.00000,0.00000,0.00000,0.00000,0.00000,0.00000,0.00000,0.00000,0.00000 100 -0.01171,-0.01490,0.00639 0.23914,0.95068,0.15137 -0.42450,0.12750,0.14400 -0.01171,-0.01490,0.00639 0.23914,0.95068,0.15137 -0.42464,0.12741,0.14401 -0.08998,-0.05153,0.27606
06/13/24 12:28:58.036507 0.00000,0.00000,0.00000,0.00000,0.00000,0.00000,0.00000,0.00000,0.00000,0.00000,0.00000,0.00000 100 0.00213,0.00106,-0.01171 0.23932,0.94885,0.15582 -0.42750,0.12900,0.15000 0.00213,0.00106,-0.01171 0.23932,0.94885,0.15582 -0.42672,0.12772,0.14931 -0.08545,-0.05282,0.27824
06/13/24 12:28:58.074776 0.00000,0.00000,0.00000,0.00000,0.00000,0.00000,0.00000,0.00000,0.00000,0.00000,0.00000,0.00000 100 0.00106,-0.01597,0.01490 0.23877,0.95038,0.14233 -0.42450,0.13500,0.14850 0.00106,-0.01597,0.01490 0.23877,0.95038,0.14233 -0.42448,0.13334,0.14854 -0.09689,-0.05281,0.27191
06/13/24 12:28:58.118160 0.00000,0.00000,0.00000,0.00000,0.00000,0.00000,0.00000,0.00000,0.00000,0.00000,0.00000,0.00000 100 -0.00532,0.00319,0.00000 0.23871,0.95172,0.15002 -0.42900,0.13500,0.14250 -0.00532,0.00319,0.00000 0.23871,0.95172,0.15002 -0.42669,0.13421,0.14068 -0.09095,-0.05128,0.27735
06/13/24 12:28:58.156651 0.00000,0.00000,0.00000,0.00000,0.00000,0.00000,0.00000,0.00000,0.00000,0.00000,0.00000,0.00000 100 0.00000,0.00852,0.00639 0.23694,0.95184,0.15179 -0.42450,0.13350,0.14700 0.00000,0.00852,0.00639 0.23694,0.95184,0.15179 -0.42467,0.13182,0.14837 -0.09010,-0.05209,0.28024
06/13/24 12:28:58.199844 0.00000,0.00000,0.00000,0.00000,0.00000,0.00000,0.00000,0.00000,0.00000,0.00000,0.00000,0.00000 100 -0.02129,-0.01490,0.00426 0.23541,0.94635,0.15106 -0.42300,0.13200,0.15150 -0.02129,-0.01490,0.00426 0.23541,0.94635,0.15106 -0.42545,0.13136,0.15177 -0.08920,-0.05773,0.27926
06/13/24 12:28:58.238400 0.00000,0.00000,0.00000,0.00000,0.00000,0.00000,0.00000,0.00000,0.00000,0.00000,0.00000,0.00000 100 -0.00106,-0.00426,0.01278 0.23602,0.95117,0.15125 -0.42300,0.13050,0.14400 -0.00106,-0.00426,0.01278 0.23602,0.95117,0.15125 -0.42302,0.13049,0.14460 -0.09006,-0.05345,0.28150
06/13/24 12:28:58.282105 0.00000,0.00000,0.00000,0.00000,0.00000,0.00000,0.00000,0.00000,0.00000,0.00000,0.00000,0.00000 100 0.00745,0.00106,0.01597 0.23175,0.95282,0.15222 -0.41850,0.13200,0.14550 0.00745,0.00106,0.01597 0.23175,0.95282,0.15222 -0.41978,0.13122,0.14487 -0.09148,-0.05428,0.28634
06/13/24 12:28:58.320148 0.00000,0.00000,0.00000,0.00000,0.00000,0.00000,0.00000,0.00000,0.00000,0.00000,0.00000,0.00000 100 0.00000,-0.01384,-0.00745 0.23816,0.95172,0.15314 -0.42600,0.12600,0.14400 0.00000,-0.01384,-0.00745 0.23816,0.95172,0.15314 -0.42436,0.12815,0.14242 -0.08737,-0.05199,0.28212
06/13/24 12:28:58.363823 0.00000,0.00000,0.00000,0.00000,0.00000,0.00000,0.00000,0.00000,0.00000,0.00000,0.00000,0.00000 100 0.00106,-0.00745,0.00532 0.23932,0.94690,0.15057 -0.42300,0.13050,0.15000 0.00106,-0.00745,0.00532 0.23932,0.94690,0.15057 -0.42342,0.13045,0.15004 -0.08741,-0.05583,0.27834
06/13/24 12:28:58.401882 0.00000,0.00000,0.00000,0.00000,0.00000,0.00000,0.00000,0.00000,0.00000,0.00000,0.00000,0.00000 100 0.00213,-0.00852,0.00319 0.23431,0.95001,0.15411 -0.42300,0.13200,0.14550 0.00213,-0.00852,0.00319 0.23431,0.95001,0.15411 -0.42339,0.13250,0.14474 -0.08767,-0.05558,0.28561
06/13/24 12:28:58.445618 0.00000,0.00000,0.00000,0.00000,0.00000,0.00000,0.00000,0.00000,0.00000,0.00000,0.00000,0.00000 100 0.00319,-0.00319,-0.00319 0.23737,0.94604,0.15271 -0.42750,0.12450,0.14250 0.00319,-0.00319,-0.00319 0.23737,0.94604,0.15271 -0.42759,0.12509,0.14345 -0.08585,-0.05757,0.28129
06/13/24 12:28:58.484142 0.00000,0.00000,0.00000,0.00000,0.00000,0.00000,0.00000,0.00000,0.00000,0.00000,0.00000,0.00000 100 0.00745,-0.00852,-0.00639 0.23895,0.94757,0.15662 -0.41700,0.12450,0.14250 0.00745,-0.00852,-0.00639 0.23895,0.94757,0.15662 -0.41841,0.12533,0.14312 -0.08208,-0.05523,0.28319
06/13/24 12:28:58.527340 0.00000,0.00000,0.00000,0.00000,0.00000,0.00000,0.00000,0.00000,0.00000,0.00000,0.00000,0.00000 100 -0.00639,-0.00745,0.01384 0.23352,0.94867,0.14520 -0.42600,0.13050,0.14550 -0.00639,-0.00745,0.01384 0.23352,0.94867,0.14520 -0.42590,0.13015,0.14591 -0.09426,-0.05798,0.28162
06/13/24 12:28:58.565887 0.00000,0.00000,0.00000,0.00000,0.00000,0.00000,0.00000,0.00000,0.00000,0.00000,0.00000,0.00000 100 -0.00213,0.00426,0.01065 0.23389,0.94281,0.15289 -0.42300,0.13200,0.13800 -0.00213,0.00426,0.01065 0.23389,0.94281,0.15289 -0.42370,0.13180,0.13790 -0.08551,-0.06239,0.28379
06/13/24 12:28:58.609062 0.00000,0.00000,0.00000,0.00000,0.00000,0.00000,0.00000,0.00000,0.00000,0.00000,0.00000,0.00000 100 -0.01384,-0.00532,-0.00106 0.23645,0.95154,0.15381 -0.42450,0.12900,0.14850 -0.01384,-0.00532,-0.00106 0.23645,0.95154,0.15381 -0.42385,0.12925,0.14816 -0.08644,-0.05362,0.28616
06/13/24 12:28:58.652905 0.00000,0.00000,0.00000,0.00000,0.00000,0.00000,0.00000,0.00000,0.00000,0.00000,0.00000,0.00000 100 -0.00426,-0.00745,0.01703 0.23596,0.94745,0.15240 -0.43200,0.12750,0.13950 -0.00426,-0.00745,0.01703 0.23596,0.94745,0.15240 -0.43166,0.12939,0.14065 -0.08617,-0.05761,0.28467
06/13/24 12:28:58.690914 0.00000,0.00000,0.00000,0.00000,0.00000,0.00000,0.00000,0.00000,0.00000,0.00000,0.00000,0.00000 100 -0.01065,0.01171,0.00958 0.23694,0.95129,0.14966 -0.42300,0.12450,0.13800 -0.01065,0.01171,0.00958 0.23694,0.95129,0.14966 -0.42365,0.12601,0.13954 -0.08938,-0.05414,0.28437
06/13/24 12:28:58.734627 0.00000,0.00000,0.00000,0.00000,0.00000,0.00000,0.00000,0.00000,0.00000,0.00000,0.00000,0.00000 100 -0.02023,0.00426,0.01916 0.23724,0.95264,0.14783 -0.42450,0.13950,0.14100 -0.02023,0.00426,0.01916 0.23724,0.95264,0.14783 -0.42414,0.13621,0.14100 -0.09109,-0.05308,0.28407
06/13/24 12:28:58.773174 0.00000,0.00000,0.00000,0.00000,0.00000,0.00000,0.00000,0.00000,0.00000,0.00000,0.00000,0.00000 100 -0.00426,-0.01065,-0.00213 0.23938,0.94714,0.14960 -0.42600,0.12750,0.15000 -0.00426,-0.01065,-0.00213 0.23938,0.94714,0.14960 -0.42573,0.12774,0.14858 -0.08676,-0.05661,0.28150
06/13/24 12:28:58.816422 0.00000,0.00000,0.00000,0.00000,0.00000,0.00000,0.00000,0.00000,0.00000,0.00000,0.00000,0.00000 100 0.01065,-0.00213,-0.00106 0.23596,0.94922,0.15002 -0.42300,0.12450,0.14550 0.01065,-0.00213,-0.00106 0.23596,0.94922,0.15002 -0.42327,0.12513,0.14469 -0.08836,-0.05672,0.28567
06/13/24 12:28:58.854973 0.00000,0.00000,0.00000,0.00000,0.00000,0.00000,0.00000,0.00000,0.00000,0.00000,0.00000,0.00000 100 -0.00745,-0.00426,0.00639 0.23401,0.94781,0.15363 -0.42450,0.13200,0.14250 -0.00745,-0.00426,0.00639 0.23401,0.94781,0.15363 -0.42508,0.13170,0.14330 -0.08546,-0.05870,0.28873
06/13/24 12:28:58.898171 0.00000,0.00000,0.00000,0.00000,0.00000,0.00000,0.00000,0.00000,0.00000,0.00000,0.00000,0.00000 100 -0.00639,-0.02236,0.00000 0.23718,0.94849,0.14832 -0.42600,0.13350,0.15000 -0.00639,-0.02236,0.00000 0.23718,0.94849,0.14832 -0.42533,0.13301,0.14971 -0.08854,-0.05692,0.28398
06/13/24 12:28:58.936714 0.00000,0.00000,0.00000,0.00000,0.00000,0.00000,0.00000,0.00000,0.00000,0.00000,0.00000,0.00000 100 0.00426,-0.00106,0.00319 0.23749,0.94604,0.15051 -0.42750,0.13050,0.14250 0.00426,-0.00106,0.00319 0.23749,0.94604,0.15051 -0.42639,0.13111,0.14441 -0.08557,-0.05882,0.28445
06/13/24 12:28:58.980393 0.00000,0.00000,0.00000,0.00000,0.00000,0.00000,0.00000,0.00000,0.00000,0.00000,0.00000,0.00000 100 0.00106,-0.00213,0.00319 0.23309,0.95001,0.15015 -0.42600,0.12600,0.14550 0.00106,-0.00213,0.00319 0.23309,0.95001,0.15015 -0.42561,0.12631,0.14596 -0.08871,-0.05781,0.28948
06/13/24 12:28:59.018433 0.00000,0.00000,0.00000,0.00000,0.00000,0.00000,0.00000,0.00000,0.00000,0.00000,0.00000,0.00000 100 0.01810,-0.00213,0.00639 0.23090,0.94653,0.15247 -0.42750,0.13500,0.14850 0.01810,-0.00213,0.00639 0.23090,0.94653,0.15247 -0.42726,0.13448,0.14789 -0.08636,-0.06180,0.29122
06/13/24 12:28:59.062130 0.00000,0.00000,0.00000,0.00000,0.00000,0.00000,0.00000,0.00000,0.00000,0.00000,0.00000,0.00000 100 -0.01384,-0.02449,0.00319 0.23590,0.94959,0.15088 -0.42450,0.13200,0.14250 -0.01384,-0.02449,0.00319 0.23590,0.94959,0.15088 -0.42384,0.13234,0.14259 -0.08624,-0.05682,0.28828
06/13/24 12:28:59.100159 0.00000,0.00000,0.00000,0.00000,0.00000,0.00000,0.00000,0.00000,0.00000,0.00000,0.00000,0.00000 100 0.00000,0.00745,0.00745 0.23383,0.94928,0.15253 -0.42150,0.12750,0.14700 0.00000,0.00745,0.00745 0.23383,0.94928,0.15253 -0.42071,0.12866,0.14719 -0.08551,-0.05813,0.29092
06/13/24 12:28:59.144054 0.00000,0.00000,0.00000,0.00000,0.00000,0.00000,0.00000,0.00000,0.00000,0.00000,0.00000,0.00000 100 -0.00745,0.01065,0.00213 0.23682,0.94769,0.15387 -0.43050,0.12600,0.14850 -0.00745,0.01065,0.00213 0.23682,0.94769,0.15387 -0.42916,0.12684,0.14685 -0.08240,-0.05796,0.28921
06/13/24 12:28:59.182377 0.00000,0.00000,0.00000,0.00000,0.00000,0.00000,0.00000,0.00000,0.00000,0.00000,0.00000,0.00000 100 -0.01490,0.01384,-0.00213 0.23419,0.94904,0.14795 -0.42600,0.13350,0.14700 -0.01490,0.01384,-0.00213 0.23419,0.94904,0.14795 -0.42615,0.13404,0.14771 -0.08872,-0.05864,0.28874
06/13/24 12:28:59.225731 0.00000,0.00000,0.00000,0.00000,0.00000,0.00000,0.00000,0.00000,0.00000,0.00000,0.00000,0.00000 100 -0.00426,0.00000,0.01065 0.24213,0.94971,0.14661 -0.42450,0.12600,0.14700 -0.00426,0.00000,0.01065 0.24213,0.94971,0.14661 -0.42586,0.12849,0.14820 -0.08614,-0.05410,0.28269
06/13/24 12:28:59.264252 0.00000,0.00000,0.00000,0.00000,0.00000,0.00000,0.00000,0.00000,0.00000,0.00000,0.00000,0.00000 100 0.00213,-0.00319,0.01065 0.23816,0.94580,0.14960 -0.42000,0.12600,0.14550 0.00213,-0.00319,0.01065 0.23816,0.94580,0.14960 -0.42164,0.12661,0.14607 -0.08387,-0.05936,0.28601
06/13/24 12:28:59.307495 0.00000,0.00000,0.00000,0.00000,0.00000,0.00000,0.00000,0.00000,0.00000,0.00000,0.00000,0.00000 100 -0.01065,-0.01384,0.00319 0.22479,0.95087,0.15045 -0.42450,0.13050,0.13500 -0.01065,-0.01384,0.00319 0.22479,0.95087,0.15045 -0.42693,0.13020,0.13768 -0.09035,-0.06196,0.29871
06/13/24 12:28:59.346020 0.00000,0.00000,0.00000,0.00000,0.00000,0.00000,0.00000,0.00000,0.00000,0.00000,0.00000,0.00000 100 0.00745,-0.00745,0.00213 0.24182,0.95129,0.14972 -0.42450,0.13050,0.14400 0.00745,-0.00745,0.00213 0.24182,0.95129,0.14972 -0.42324,0.12954,0.14371 -0.08342,-0.05293,0.28626
06/13/24 12:28:59.389210 0.00000,0.00000,0.00000,0.00000,0.00000,0.00000,0.00000,0.00000,0.00000,0.00000,0.00000,0.00000 100 0.10007,-0.12350,0.32897 0.19110,0.94104,0.17566 -0.42600,0.12900,0.14700 0.10007,-0.12350,0.32897 0.19110,0.94104,0.17566 -0.42616,0.13000,0.14681 -0.08003,-0.08760,0.33772
06/13/24 12:28:59.432888 0.00000,0.00000,0.00000,0.00000,0.00000,0.00000,0.00000,0.00000,0.00000,0.00000,0.00000,0.00000 100 -0.06388,0.00958,-0.16182 0.19135,0.96204,0.15192 -0.43200,0.13350,0.14850 -0.06388,0.00958,-0.16182 0.19135,0.96204,0.15192 -0.43203,0.13328,0.14780 -0.10681,-0.07233,0.33650
06/13/24 12:28:59.471401 0.00000,0.00000,0.00000,0.00000,0.00000,0.00000,0.00000,0.00000,0.00000,0.00000,0.00000,0.00000 100 -0.00745,-0.00532,-0.02023 0.22565,0.95490,0.14294 -0.43500,0.13800,0.14700 -0.00745,-0.00532,-0.02023 0.22565,0.95490,0.14294 -0.43483,0.13773,0.14692 -0.09751,-0.06150,0.30478
06/13/24 12:28:59.514660 0.00000,0.00000,0.00000,0.00000,0.00000,0.00000,0.00000,0.00000,0.00000,0.00000,0.00000,0.00000 100 0.00213,-0.01597,0.00852 0.24738,0.94897,0.14819 -0.42750,0.13500,0.14550 0.00213,-0.01597,0.00852 0.24738,0.94897,0.14819 -0.42769,0.13457,0.14570 -0.08151,-0.05495,0.28974
06/13/24 12:28:59.553181 0.00000,0.00000,0.00000,0.00000,0.00000,0.00000,0.00000,0.00000,0.00000,0.00000,0.00000,0.00000 100 0.00426,-0.00106,0.00000 0.24164,0.95050,0.14502 -0.43050,0.12900,0.15150 0.00426,-0.00106,0.00000 0.24164,0.95050,0.14502 -0.42952,0.12983,0.15067 -0.08682,-0.05693,0.29319
06/13/24 12:28:59.596409 0.00000,0.00000,0.00000,0.00000,0.00000,0.00000,0.00000,0.00000,0.00000,0.00000,0.00000,0.00000 100 0.00852,-0.00106,0.00639 0.24390,0.94843,0.14642 -0.43200,0.13650,0.15000 0.00852,-0.00106,0.00639 0.24390,0.94843,0.14642 -0.43236,0.13557,0.14938 -0.08364,-0.05741,0.29150
06/13/24 12:28:59.634926 0.00000,0.00000,0.00000,0.00000,0.00000,0.00000,0.00000,0.00000,0.00000,0.00000,0.00000,0.00000 100 0.00000,0.00000,-0.00426 0.24298,0.94641,0.14526 -0.42900,0.13050,0.14700 0.00000,0.00000,-0.00426 0.24298,0.94641,0.14526 -0.42864,0.13045,0.14685 -0.08413,-0.05975,0.29100
06/13/24 12:28:59.678799 0.00000,0.00000,0.00000,0.00000,0.00000,0.00000,0.00000,0.00000,0.00000,0.00000,0.00000,0.00000 100 0.00213,0.00319,-0.01278 0.24548,0.93958,0.15198 -0.42450,0.13500,0.14250 0.00213,0.00319,-0.01278 0.24548,0.93958,0.15198 -0.42592,0.13580,0.14321 -0.07473,-0.06378,0.28996
06/13/24 12:28:59.716663 0.00000,0.00000,0.00000,0.00000,0.00000,0.00000,0.00000,0.00000,0.00000,0.00000,0.00000,0.00000 100 -0.01810,0.00639,0.00852 0.24426,0.94318,0.15149 -0.43050,0.12750,0.14250 -0.01810,0.00639,0.00852 0.24426,0.94318,0.15149 -0.43035,0.12827,0.14227 -0.07694,-0.06150,0.29238
06/13/24 12:28:59.760525 0.00000,0.00000,0.00000,0.00000,0.00000,0.00000,0.00000,0.00000,0.00000,0.00000,0.00000,0.00000 100 0.01065,-0.00852,0.02981 0.25067,0.93494,0.13696 -0.43350,0.12900,0.14850 0.01065,-0.00852,0.02981 0.25067,0.93494,0.13696 -0.43114,0.13136,0.14818 -0.08389,-0.06653,0.27804
06/13/24 12:28:59.798588 0.00000,0.00000,0.00000,0.00000,0.00000,0.00000,0.00000,0.00000,0.00000,0.00000,0.00000,0.00000 100 0.00745,0.00106,-0.00213 0.25531,0.94659,0.14954 -0.42750,0.13350,0.14550 0.00745,0.00106,-0.00213 0.25531,0.94659,0.14954 -0.42759,0.13342,0.14590 -0.07481,-0.05332,0.28598
06/13/24 12:28:59.842300 0.00000,0.00000,0.00000,0.00000,0.00000,0.00000,0.00000,0.00000,0.00000,0.00000,0.00000,0.00000 100 0.00106,0.00106,-0.00532 0.24341,0.94800,0.14313 -0.42450,0.13350,0.14700 0.00106,0.00106,-0.00532 0.24341,0.94800,0.14313 -0.42615,0.13232,0.14740 -0.08504,-0.05880,0.29215
06/13/24 12:28:59.880821 0.00000,0.00000,0.00000,0.00000,0.00000,0.00000,0.00000,0.00000,0.00000,0.00000,0.00000,0.00000 100 0.00000,0.01278,0.01384 0.23962,0.94708,0.14740 -0.42300,0.12900,0.14550 0.00000,0.01278,0.01384 0.23962,0.94708,0.14740 -0.42623,0.13101,0.14419 -0.08250,-0.06137,0.29711
06/13/24 12:28:59.924046 0.00000,0.00000,0.00000,0.00000,0.00000,0.00000,0.00000,0.00000,0.00000,0.00000,0.00000,0.00000 100 0.01278,-0.01278,0.00319 0.24731,0.94800,0.14819 -0.43350,0.13200,0.14100 0.01278,-0.01278,0.00319 0.24731,0.94800,0.14819 -0.43250,0.13115,0.14250 -0.07834,-0.05650,0.29241
06/13/24 12:28:59.962563 0.00000,0.00000,0.00000,0.00000,0.00000,0.00000,0.00000,0.00000,0.00000,0.00000,0.00000,0.00000 100 -0.00106,-0.00106,-0.01065 0.24805,0.94696,0.15033 -0.43500,0.13800,0.15000 -0.00106,-0.00106,-0.01065 0.24805,0.94696,0.15033 -0.43205,0.13732,0.15015 -0.07585,-0.05693,0.29278
06/13/24 12:29:00.005747 0.00000,0.00000,0.00000,0.00000,0.00000,0.00000,0.00000,0.00000,0.00000,0.00000,0.00000,0.00000 100 0.00000,-0.00426,0.00745 0.24280,0.94452,0.14362 -0.42600,0.13500,0.14400 0.00000,-0.00426,0.00745 0.24280,0.94452,0.14362 -0.42698,0.13387,0.14404 -0.08252,-0.06223,0.29234
06/13/24 12:29:00.044252 0.00000,0.00000,0.00000,0.00000,0.00000,0.00000,0.00000,0.00000,0.00000,0.00000,0.00000,0.00000 100 -0.01065,0.02129,0.00213 0.24347,0.94775,0.14703 -0.43200,0.13800,0.14250 -0.01065,0.02129,0.00213 0.24347,0.94775,0.14703 -0.42960,0.13661,0.14509 -0.08037,-0.05898,0.29521
06/13/24 12:29:00.087455 0.00000,0.00000,0.00000,0.00000,0.00000,0.00000,0.00000,0.00000,0.00000,0.00000,0.00000,0.00000 100 0.00532,-0.00213,-0.01278 0.24738,0.95056,0.14648 -0.42750,0.13650,0.14850 0.00532,-0.00213,-0.01278 0.24738,0.95056,0.14648 -0.42783,0.13601,0.14840 -0.08001,-0.05457,0.29322
06/13/24 12:29:00.125975 0.00000,0.00000,0.00000,0.00000,0.00000,0.00000,0.00000,0.00000,0.00000,0.00000,0.00000,0.00000 100 0.01703,-0.00106,0.00639 0.24939,0.94464,0.14502 -0.43500,0.12900,0.14850 0.01703,-0.00106,0.00639 0.24939,0.94464,0.14502 -0.43487,0.12958,0.14834 -0.07825,-0.05863,0.28856
06/13/24 12:29:00.169691 0.00000,0.00000,0.00000,0.00000,0.00000,0.00000,0.00000,0.00000,0.00000,0.00000,0.00000,0.00000 100 0.01171,0.01810,-0.01916 0.24384,0.94739,0.15320 -0.43200,0.13050,0.15000 0.01171,0.01810,-0.01916 0.24384,0.94739,0.15320 -0.43209,0.13073,0.14839 -0.07405,-0.05867,0.29814
06/13/24 12:29:00.213102 0.00000,0.00000,0.00000,0.00000,0.00000,0.00000,0.00000,0.00000,0.00000,0.00000,0.00000,0.00000 100 0.01916,-0.00319,0.00426 0.24780,0.94458,0.14557 -0.43650,0.13200,0.14850 0.01916,-0.00319,0.00426 0.24780,0.94458,0.14557 -0.43553,0.13215,0.14740 -0.07786,-0.05957,0.29044
06/13/24 12:29:00.251460 0.00000,0.00000,0.00000,0.00000,0.00000,0.00000,0.00000,0.00000,0.00000,0.00000,0.00000,0.00000 100 0.00745,0.00319,-0.00532 0.24860,0.94543,0.14209 -0.43050,0.13800,0.14700 0.00745,0.00319,-0.00532 0.24860,0.94543,0.14209 -0.43062,0.13698,0.14654 -0.08053,-0.05860,0.28829
06/13/24 12:29:00.294884 0.00000,0.00000,0.00000,0.00000,0.00000,0.00000,0.00000,0.00000,0.00000,0.00000,0.00000,0.00000 100 -0.00639,0.00319,-0.00426 0.24481,0.93976,0.15283 -0.42600,0.13350,0.14850 -0.00639,0.00319,-0.00426 0.24481,0.93976,0.15283 -0.42717,0.13390,0.14889 -0.07076,-0.06468,0.29430
06/13/24 12:29:00.333413 0.00000,0.00000,0.00000,0.00000,0.00000,0.00000,0.00000,0.00000,0.00000,0.00000,0.00000,0.00000 100 0.00106,0.00532,0.00106 0.24500,0.94141,0.14520 -0.43500,0.13650,0.15000 0.00106,0.00532,0.00106 0.24500,0.94141,0.14520 -0.43576,0.13612,0.14882 -0.07772,-0.06380,0.29128
06/13/24 12:29:00.377101 0.00000,0.00000,0.00000,0.00000,0.00000,0.00000,0.00000,0.00000,0.00000,0.00000,0.00000,0.00000 100 0.00319,0.00319,-0.01384 0.24774,0.94324,0.15216 -0.43350,0.12900,0.14850 0.00319,0.00319,-0.01384 0.24774,0.94324,0.15216 -0.43046,0.12885,0.14635 -0.07070,-0.06034,0.29370
06/13/24 12:29:00.415146 0.00000,0.00000,0.00000,0.00000,0.00000,0.00000,0.00000,0.00000,0.00000,0.00000,0.00000,0.00000 100 -0.01384,0.00639,0.00319 0.24585,0.94568,0.14923 -0.43200,0.13650,0.14700 -0.01384,0.00639,0.00319 0.24585,0.94568,0.14923 -0.43075,0.13653,0.14780 -0.07458,-0.05947,0.29474
06/13/24 12:29:00.458850 0.00000,0.00000,0.00000,0.00000,0.00000,0.00000,0.00000,0.00000,0.00000,0.00000,0.00000,0.00000 100 -0.00319,0.00000,0.00319 0.24792,0.94775,0.14465 -0.42450,0.13350,0.14400 -0.00319,0.00000,0.00319 0.24792,0.94775,0.14465 -0.42525,0.13369,0.14435 -0.07812,-0.05702,0.29209
06/13/24 12:29:00.496877 0.00000,0.00000,0.00000,0.00000,0.00000,0.00000,0.00000,0.00000,0.00000,0.00000,0.00000,0.00000 100 0.00532,0.00532,0.01065 0.25073,0.94800,0.15112 -0.43650,0.12900,0.14550 0.00532,0.00532,0.01065 0.25073,0.94800,0.15112 -0.43290,0.12919,0.14566 -0.07131,-0.05489,0.29340
06/13/24 12:29:00.540605 0.00000,0.00000,0.00000,0.00000,0.00000,0.00000,0.00000,0.00000,0.00000,0.00000,0.00000,0.00000 100 -0.00639,-0.00213,-0.00106 0.24518,0.94812,0.14966 -0.43200,0.13650,0.15600 -0.00639,-0.00213,-0.00106 0.24518,0.94812,0.14966 -0.43187,0.13633,0.15496 -0.07461,-0.05789,0.29717
06/13/24 12:29:00.578639 0.00000,0.00000,0.00000,0.00000,0.00000,0.00000,0.00000,0.00000,0.00000,0.00000,0.00000,0.00000 100 -0.01278,-0.00532,-0.00106 0.24963,0.94501,0.14862 -0.43500,0.13500,0.14400 -0.01278,-0.00532,-0.00106 0.24963,0.94501,0.14862 -0.43292,0.13492,0.14426 -0.07253,-0.05825,0.29203
06/13/24 12:29:00.622318 0.00000,0.00000,0.00000,0.00000,0.00000,0.00000,0.00000,0.00000,0.00000,0.00000,0.00000,0.00000 100 0.00319,0.01384,-0.01171 0.24475,0.94556,0.14941 -0.43350,0.13500,0.14250 0.00319,0.01384,-0.01171 0.24475,0.94556,0.14941 -0.43374,0.13516,0.14210 -0.07378,-0.06026,0.29624
06/13/24 12:29:00.660835 0.00000,0.00000,0.00000,0.00000,0.00000,0.00000,0.00000,0.00000,0.00000,0.00000,0.00000,0.00000 100 -0.01065,0.00852,0.01384 0.24548,0.95239,0.14490 -0.42450,0.13050,0.14700 -0.01065,0.00852,0.01384 0.24548,0.95239,0.14490 -0.42427,0.13040,0.14670 -0.07938,-0.05444,0.29653
06/13/24 12:29:00.704033 0.00000,0.00000,0.00000,0.00000,0.00000,0.00000,0.00000,0.00000,0.00000,0.00000,0.00000,0.00000 100 0.00639,-0.00745,0.00852 0.24738,0.94910,0.14526 -0.43350,0.13200,0.14850 0.00639,-0.00745,0.00852 0.24738,0.94910,0.14526 -0.43325,0.13177,0.14791 -0.07685,-0.05627,0.29419
06/13/24 12:29:00.742595 0.00000,0.00000,0.00000,0.00000,0.00000,0.00000,0.00000,0.00000,0.00000,0.00000,0.00000,0.00000 100 -0.01597,-0.01278,-0.00852 0.24646,0.94781,0.14856 -0.42600,0.13200,0.13950 -0.01597,-0.01278,-0.00852 0.24646,0.94781,0.14856 -0.42676,0.13208,0.14018 -0.07361,-0.05768,0.29629
06/13/24 12:29:00.786001 0.00000,0.00000,0.00000,0.00000,0.00000,0.00000,0.00000,0.00000,0.00000,0.00000,0.00000,0.00000 100 -0.01171,-0.00106,0.00852 0.24622,0.94720,0.14343 -0.43500,0.13800,0.14850 -0.01171,-0.00106,0.00852 0.24622,0.94720,0.14343 -0.43348,0.13592,0.15040 -0.07776,-0.05875,0.29392
06/13/24 12:29:00.824313 0.00000,0.00000,0.00000,0.00000,0.00000,0.00000,0.00000,0.00000,0.00000,0.00000,0.00000,0.00000 100 -0.00532,-0.01703,-0.01278 0.24707,0.94281,0.14288 -0.43350,0.13650,0.14850 -0.00532,-0.01703,-0.01278 0.24707,0.94281,0.14288 -0.43300,0.13674,0.14874 -0.07628,-0.06210,0.29133
06/13/24 12:29:00.868187 0.00000,0.00000,0.00000,0.00000,0.00000,0.00000,0.00000,0.00000,0.00000,0.00000,0.00000,0.00000 100 0.02023,0.00958,0.01278 0.24823,0.94690,0.14807 -0.43050,0.13650,0.14550 0.02023,0.00958,0.01278 0.24823,0.94690,0.14807 -0.43140,0.13395,0.14779 -0.07212,-0.05767,0.29492
06/13/24 12:29:00.906078 0.00000,0.00000,0.00000,0.00000,0.00000,0.00000,0.00000,0.00000,0.00000,0.00000,0.00000,0.00000 100 0.00426,0.00106,-0.02023 0.24176,0.94641,0.14917 -0.42900,0.13050,0.14700 0.00426,0.00106,-0.02023 0.24176,0.94641,0.14917 -0.42884,0.13038,0.14740 -0.07325,-0.06154,0.30055
06/13/24 12:29:00.949935 0.00000,0.00000,0.00000,0.00000,0.00000,0.00000,0.00000,0.00000,0.00000,0.00000,0.00000,0.00000 100 0.00532,-0.01490,0.00000 0.24695,0.94775,0.14783 -0.42900,0.13950,0.14850 0.00532,-0.01490,0.00000 0.24695,0.94775,0.14783 -0.43000,0.13753,0.14621 -0.07274,-0.05780,0.29672
06/13/24 12:29:00.987950 0.00000,0.00000,0.00000,0.00000,0.00000,0.00000,0.00000,0.00000,0.00000,0.00000,0.00000,0.00000 100 -0.00213,0.00106,0.01065 0.24805,0.95258,0.15094 -0.43650,0.13650,0.13950 -0.00213,0.00106,0.01065 0.24805,0.95258,0.15094 -0.43448,0.13586,0.14209 -0.07096,-0.05299,0.29974
06/13/24 12:29:01.031640 0.00000,0.00000,0.00000,0.00000,0.00000,0.00000,0.00000,0.00000,0.00000,0.00000,0.00000,0.00000 100 -0.00319,-0.00532,-0.00532 0.24231,0.94855,0.14801 -0.42450,0.13350,0.14100 -0.00319,-0.00532,-0.00532 0.24231,0.94855,0.14801 -0.42534,0.13334,0.14120 -0.07407,-0.05968,0.30113
06/13/24 12:29:01.070173 0.00000,0.00000,0.00000,0.00000,0.00000,0.00000,0.00000,0.00000,0.00000,0.00000,0.00000,0.00000 100 -0.00319,0.00745,0.00319 0.24652,0.95013,0.14832 -0.42900,0.13500,0.14400 -0.00319,0.00745,0.00319 0.24652,0.95013,0.14832 -0.43088,0.13449,0.14583 -0.07242,-0.05614,0.29902
06/13/24 12:29:01.113369 0.00000,0.00000,0.00000,0.00000,0.00000,0.00000,0.00000,0.00000,0.00000,0.00000,0.00000,0.00000 100 -0.00426,-0.01278,-0.00319 0.24390,0.94379,0.15295 -0.42750,0.13650,0.15000 -0.00426,-0.01278,-0.00319 0.24390,0.94379,0.15295 -0.42841,0.13562,0.15123 -0.06720,-0.06256,0.30050
06/13/24 12:29:01.157045 0.00000,0.00000,0.00000,0.00000,0.00000,0.00000,0.00000,0.00000,0.00000,0.00000,0.00000,0.00000 100 -0.00532,0.00639,-0.01278 0.24335,0.94580,0.15216 -0.43050,0.13350,0.15300 -0.00532,0.00639,-0.01278 0.24335,0.94580,0.15216 -0.43025,0.13330,0.15245 -0.06843,-0.06120,0.30148
06/13/24 12:29:01.195083 0.00000,0.00000,0.00000,0.00000,0.00000,0.00000,0.00000,0.00000,0.00000,0.00000,0.00000,0.00000 100 -0.01916,0.00852,-0.01703 0.24750,0.94794,0.15070 -0.42900,0.13500,0.15000 -0.01916,0.00852,-0.01703 0.24750,0.94794,0.15070 -0.42948,0.13503,0.15040 -0.06858,-0.05731,0.29864
06/13/24 12:29:01.238808 0.00000,0.00000,0.00000,0.00000,0.00000,0.00000,0.00000,0.00000,0.00000,0.00000,0.00000,0.00000 100 0.01597,0.02023,0.00319 0.25037,0.94659,0.14240 -0.42450,0.13350,0.14850 0.01597,0.02023,0.00319 0.25037,0.94659,0.14240 -0.42578,0.13395,0.14894 -0.07408,-0.05755,0.29206
06/13/24 12:29:01.276822 0.00000,0.00000,0.00000,0.00000,0.00000,0.00000,0.00000,0.00000,0.00000,0.00000,0.00000,0.00000 100 0.01065,0.01278,-0.01278 0.24335,0.95441,0.14661 -0.42600,0.12750,0.14700 0.01065,0.01278,-0.01278 0.24335,0.95441,0.14661 -0.42628,0.12738,0.14700 -0.07533,-0.05438,0.30286
06/13/24 12:29:01.320710 0.00000,0.00000,0.00000,0.00000,0.00000,0.00000,0.00000,0.00000,0.00000,0.00000,0.00000,0.00000 100 -0.00639,-0.00426,-0.00745 0.24603,0.94452,0.14795 -0.43500,0.13200,0.14700 -0.00639,-0.00426,-0.00745 0.24603,0.94452,0.14795 -0.43316,0.13194,0.14685 -0.06992,-0.06121,0.29719
06/13/24 12:29:01.359083 0.00000,0.00000,0.00000,0.00000,0.00000,0.00000,0.00000,0.00000,0.00000,0.00000,0.00000,0.00000 100 -0.02023,-0.01278,-0.01065 0.24384,0.94849,0.14911 -0.43200,0.13800,0.14400 -0.02023,-0.01278,-0.01065 0.24384,0.94849,0.14911 -0.43244,0.13764,0.14451 -0.07061,-0.05897,0.30132
06/13/24 12:29:01.402519 0.00000,0.00000,0.00000,0.00000,0.00000,0.00000,0.00000,0.00000,0.00000,0.00000,0.00000,0.00000 100 -0.00958,-0.00958,0.00852 0.24701,0.95410,0.14752 -0.43350,0.13500,0.14850 -0.00958,-0.00958,0.00852 0.24701,0.95410,0.14752 -0.43353,0.13499,0.14798 -0.07234,-0.05269,0.30076
06/13/24 12:29:01.441053 0.00000,0.00000,0.00000,0.00000,0.00000,0.00000,0.00000,0.00000,0.00000,0.00000,0.00000,0.00000 100 -0.00852,0.00319,0.00852 0.24683,0.94904,0.15051 -0.43350,0.12900,0.14550 -0.00852,0.00319,0.00852 0.24683,0.94904,0.15051 -0.43409,0.12968,0.14690 -0.06828,-0.05682,0.30000
06/13/24 12:29:01.484243 0.00000,0.00000,0.00000,0.00000,0.00000,0.00000,0.00000,0.00000,0.00000,0.00000,0.00000,0.00000 100 -0.00958,-0.01490,0.01810 0.24652,0.94702,0.15021 -0.43350,0.12750,0.14400 -0.00958,-0.01490,0.01810 0.24652,0.94702,0.15021 -0.43475,0.12829,0.14379 -0.06771,-0.05875,0.29941
06/13/24 12:29:01.522762 0.00000,0.00000,0.00000,0.00000,0.00000,0.00000,0.00000,0.00000,0.00000,0.00000,0.00000,0.00000 100 -0.01065,-0.00532,0.00319 0.24414,0.94708,0.14447 -0.43650,0.13800,0.15000 -0.01065,-0.00532,0.00319 0.24414,0.94708,0.14447 -0.43521,0.13382,0.14794 -0.07349,-0.06034,0.29845
06/13/24 12:29:01.566476 0.00000,0.00000,0.00000,0.00000,0.00000,0.00000,0.00000,0.00000,0.00000,0.00000,0.00000,0.00000 100 -0.01171,-0.01703,0.00000 0.24841,0.94342,0.14294 -0.42450,0.13200,0.14550 -0.01171,-0.01703,0.00000 0.24841,0.94342,0.14294 -0.42396,0.13197,0.14628 -0.07195,-0.06128,0.29292
06/13/24 12:29:01.604495 0.00000,0.00000,0.00000,0.00000,0.00000,0.00000,0.00000,0.00000,0.00000,0.00000,0.00000,0.00000 100 -0.00958,0.00639,0.00745 0.24774,0.94525,0.14697 -0.42450,0.13200,0.15300 -0.00958,0.00639,0.00745 0.24774,0.94525,0.14697 -0.42697,0.13317,0.15270 -0.06888,-0.05980,0.29623
06/13/24 12:29:01.648183 0.00000,0.00000,0.00000,0.00000,0.00000,0.00000,0.00000,0.00000,0.00000,0.00000,0.00000,0.00000 100 -0.00532,0.01278,0.00213 0.24640,0.94824,0.14697 -0.43800,0.12750,0.14550 -0.00532,0.01278,0.00213 0.24640,0.94824,0.14697 -0.43675,0.12829,0.14600 -0.07002,-0.05798,0.29860
06/13/24 12:29:01.686229 0.00000,0.00000,0.00000,0.00000,0.00000,0.00000,0.00000,0.00000,0.00000,0.00000,0.00000,0.00000 100 -0.00426,-0.00745,0.00319 0.24652,0.94653,0.14673 -0.43200,0.13200,0.14850 -0.00426,-0.00745,0.00319 0.24652,0.94653,0.14673 -0.42951,0.13189,0.14729 -0.06933,-0.05942,0.29787
06/13/24 12:29:01.729950 0.00000,0.00000,0.00000,0.00000,0.00000,0.00000,0.00000,0.00000,0.00000,0.00000,0.00000,0.00000 100 -0.02342,0.00532,0.00852 0.24786,0.94745,0.14941 -0.43650,0.13500,0.14550 -0.02342,0.00532,0.00852 0.24786,0.94745,0.14941 -0.43572,0.13506,0.14599 -0.06658,-0.05783,0.29883
06/13/24 12:29:01.768504 0.00000,0.00000,0.00000,0.00000,0.00000,0.00000,0.00000,0.00000,0.00000,0.00000,0.00000,0.00000 100 0.02555,0.02236,-0.00106 0.24304,0.94977,0.14618 -0.42600,0.13500,0.14100 0.02555,0.02236,-0.00106 0.24304,0.94977,0.14618 -0.42595,0.13394,0.14134 -0.07148,-0.05867,0.30214
06/13/24 12:29:01.811689 0.00000,0.00000,0.00000,0.00000,0.00000,0.00000,0.00000,0.00000,0.00000,0.00000,0.00000,0.00000 100 -0.00319,-0.00639,-0.00852 0.24554,0.94946,0.14526 -0.43200,0.14100,0.14550 -0.00319,-0.00639,-0.00852 0.24554,0.94946,0.14526 -0.43200,0.13976,0.14570 -0.07081,-0.05757,0.29948
06/13/24 12:29:01.850191 0.00000,0.00000,0.00000,0.00000,0.00000,0.00000,0.00000,0.00000,0.00000,0.00000,0.00000,0.00000 100 0.00106,0.00532,-0.00639 0.24500,0.94385,0.14526 -0.43350,0.13200,0.15150 0.00106,0.00532,-0.00639 0.24500,0.94385,0.14526 -0.43363,0.13236,0.15161 -0.06911,-0.06259,0.29741
06/13/24 12:29:01.893367 0.00000,0.00000,0.00000,0.00000,0.00000,0.00000,0.00000,0.00000,0.00000,0.00000,0.00000,0.00000 100 -0.00426,0.01916,-0.00319 0.24609,0.94806,0.14728 -0.43200,0.13200,0.14700 -0.00426,0.01916,-0.00319 0.24609,0.94806,0.14728 -0.43195,0.13230,0.14711 -0.06826,-0.05830,0.29936
06/13/24 12:29:01.937218 0.00000,0.00000,0.00000,0.00000,0.00000,0.00000,0.00000,0.00000,0.00000,0.00000,0.00000,0.00000 100 -0.01171,-0.01490,0.00532 0.24847,0.95068,0.15344 -0.43050,0.13650,0.14850 -0.01171,-0.01490,0.00532 0.24847,0.95068,0.15344 -0.43061,0.13603,0.14666 -0.06262,-0.05439,0.30163
06/13/24 12:29:01.975285 0.00000,0.00000,0.00000,0.00000,0.00000,0.00000,0.00000,0.00000,0.00000,0.00000,0.00000,0.00000 100 -0.01490,-0.00319,0.00532 0.25098,0.94275,0.15051 -0.43650,0.13350,0.14850 -0.01490,-0.00319,0.00532 0.25098,0.94275,0.15051 -0.43443,0.13209,0.14830 -0.06170,-0.05995,0.29482
06/13/24 12:29:02.018927 0.00000,0.00000,0.00000,0.00000,0.00000,0.00000,0.00000,0.00000,0.00000,0.00000,0.00000,0.00000 100 0.00000,0.00319,-0.00426 0.24280,0.95239,0.14941 -0.42300,0.13350,0.15000 0.00000,0.00319,-0.00426 0.24280,0.95239,0.14941 -0.42513,0.13205,0.14880 -0.06818,-0.05631,0.30517
06/13/24 12:29:02.057468 0.00000,0.00000,0.00000,0.00000,0.00000,0.00000,0.00000,0.00000,0.00000,0.00000,0.00000,0.00000 100 0.00639,-0.01171,-0.00213 0.24359,0.94586,0.15283 -0.43200,0.13200,0.14850 0.00639,-0.01171,-0.00213 0.24359,0.94586,0.15283 -0.43120,0.13172,0.14700 -0.06290,-0.06115,0.30323
06/13/24 12:29:02.100699 0.00000,0.00000,0.00000,0.00000,0.00000,0.00000,0.00000,0.00000,0.00000,0.00000,0.00000,0.00000 100 -0.01171,0.00532,0.01065 0.24658,0.94556,0.15192 -0.42750,0.13200,0.15150 -0.01171,0.00532,0.01065 0.24658,0.94556,0.15192 -0.42755,0.13454,0.15181 -0.06215,-0.05984,0.30032
06/13/24 12:29:02.139204 0.00000,0.00000,0.00000,0.00000,0.00000,0.00000,0.00000,0.00000,0.00000,0.00000,0.00000,0.00000 100 -0.01490,0.00852,0.00532 0.24622,0.95123,0.14825 -0.42600,0.13050,0.14250 -0.01490,0.00852,0.00532 0.24622,0.95123,0.14825 -0.42558,0.13020,0.14339 -0.06697,-0.05555,0.30162
06/13/24 12:29:02.182389 0.00000,0.00000,0.00000,0.00000,0.00000,0.00000,0.00000,0.00000,0.00000,0.00000,0.00000,0.00000 100 0.01171,0.00852,0.00000 0.24414,0.94427,0.14569 -0.42150,0.13350,0.14550 0.01171,0.00852,0.00000 0.24414,0.94427,0.14569 -0.42318,0.13377,0.14550 -0.06781,-0.06273,0.29903
06/13/24 12:29:02.220853 0.00000,0.00000,0.00000,0.00000,0.00000,0.00000,0.00000,0.00000,0.00000,0.00000,0.00000,0.00000 100 0.00532,-0.00213,-0.01171 0.23810,0.94751,0.14856 -0.42600,0.13200,0.15300 0.00532,-0.00213,-0.01171 0.23810,0.94751,0.14856 -0.42774,0.13268,0.15274 -0.06816,-0.06305,0.30662
06/13/24 12:29:02.264546 0.00000,0.00000,0.00000,0.00000,0.00000,0.00000,0.00000,0.00000,0.00000,0.00000,0.00000,0.00000 100 -0.01065,-0.00532,0.00852 0.24432,0.94244,0.14490 -0.43200,0.13350,0.14700 -0.01065,-0.00532,0.00852 0.24432,0.94244,0.14490 -0.43101,0.13346,0.14709 -0.06758,-0.06428,0.29792
06/13/24 12:29:02.302571 0.00000,0.00000,0.00000,0.00000,0.00000,0.00000,0.00000,0.00000,0.00000,0.00000,0.00000,0.00000 100 0.00852,-0.00213,0.00532 0.24225,0.94543,0.14777 -0.43050,0.12900,0.15300 0.00852,-0.00213,0.00532 0.24225,0.94543,0.14777 -0.43131,0.12960,0.15169 -0.06642,-0.06270,0.30235
06/13/24 12:29:02.346286 0.00000,0.00000,0.00000,0.00000,0.00000,0.00000,0.00000,0.00000,0.00000,0.00000,0.00000,0.00000 100 0.01597,-0.00958,-0.01065 0.24542,0.94592,0.14581 -0.43050,0.13350,0.14850 0.01597,-0.00958,-0.01065 0.24542,0.94592,0.14581 -0.43093,0.13348,0.14875 -0.06686,-0.06075,0.29933
06/13/24 12:29:02.384341 0.00000,0.00000,0.00000,0.00000,0.00000,0.00000,0.00000,0.00000,0.00000,0.00000,0.00000,0.00000 100 0.00426,-0.00532,-0.00532 0.24786,0.94427,0.14386 -0.43200,0.13050,0.14700 0.00426,-0.00532,-0.00532 0.24786,0.94427,0.14386 -0.43185,0.13129,0.14755 -0.06689,-0.06102,0.29603
06/13/24 12:29:02.428002 0.00000,0.00000,0.00000,0.00000,0.00000,0.00000,0.00000,0.00000,0.00000,0.00000,0.00000,0.00000 100 0.00106,-0.02023,-0.00106 0.24377,0.94916,0.14642 -0.42750,0.13350,0.14250 0.00106,-0.02023,-0.00106 0.24377,0.94916,0.14642 -0.42840,0.13380,0.14318 -0.06703,-0.05885,0.30251
06/13/24 12:29:02.466516 0.00000,0.00000,0.00000,0.00000,0.00000,0.00000,0.00000,0.00000,0.00000,0.00000,0.00000,0.00000 100 -0.01278,-0.00745,0.00319 0.24683,0.94897,0.14276 -0.43350,0.13500,0.15000 -0.01278,-0.00745,0.00319 0.24683,0.94897,0.14276 -0.43294,0.13523,0.14975 -0.06895,-0.05764,0.29843
06/13/24 12:29:02.509892 0.00000,0.00000,0.00000,0.00000,0.00000,0.00000,0.00000,0.00000,0.00000,0.00000,0.00000,0.00000 100 0.00319,-0.01065,0.00000 0.23535,0.94489,0.14563 -0.43500,0.12900,0.14700 0.00319,-0.01065,0.00000 0.23535,0.94489,0.14563 -0.43331,0.12980,0.14543 -0.06894,-0.06700,0.30687
06/13/24 12:29:02.548241 0.00000,0.00000,0.00000,0.00000,0.00000,0.00000,0.00000,0.00000,0.00000,0.00000,0.00000,0.00000 100 -0.00532,0.00958,-0.00426 0.24927,0.94836,0.14954 -0.43050,0.12750,0.14100 -0.00532,0.00958,-0.00426 0.24927,0.94836,0.14954 -0.43014,0.12831,0.14159 -0.06148,-0.05637,0.29944
06/13/24 12:29:02.591649 0.00000,0.00000,0.00000,0.00000,0.00000,0.00000,0.00000,0.00000,0.00000,0.00000,0.00000,0.00000 100 -0.00319,-0.01703,0.00319 0.24554,0.94690,0.14716 -0.42750,0.13350,0.14700 -0.00319,-0.01703,0.00319 0.24554,0.94690,0.14716 -0.43015,0.13288,0.14813 -0.06437,-0.05975,0.30059
06/13/24 12:29:02.630151 0.00000,0.00000,0.00000,0.00000,0.00000,0.00000,0.00000,0.00000,0.00000,0.00000,0.00000,0.00000 100 -0.00639,-0.00106,0.00319 0.24414,0.94598,0.15100 -0.43050,0.13200,0.14850 -0.00639,-0.00106,0.00319 0.24414,0.94598,0.15100 -0.43261,0.13180,0.14743 -0.06082,-0.06097,0.30303
06/13/24 12:29:02.673373 0.00000,0.00000,0.00000,0.00000,0.00000,0.00000,0.00000,0.00000,0.00000,0.00000,0.00000,0.00000 100 0.00319,0.00106,0.00426 0.24359,0.94427,0.14954 -0.43200,0.13650,0.14550 0.00319,0.00106,0.00426 0.24359,0.94427,0.14954 -0.43242,0.13539,0.14768 -0.06155,-0.06282,0.30208
06/13/24 12:29:02.717002 0.00000,0.00000,0.00000,0.00000,0.00000,0.00000,0.00000,0.00000,0.00000,0.00000,0.00000,0.00000 100 0.00213,0.01171,-0.01703 0.24695,0.94489,0.14697 -0.43500,0.13800,0.14550 0.00213,0.01171,-0.01703 0.24695,0.94489,0.14697 -0.43476,0.13705,0.14570 -0.06249,-0.06070,0.29867
06/13/24 12:29:02.755517 0.00000,0.00000,0.00000,0.00000,0.00000,0.00000,0.00000,0.00000,0.00000,0.00000,0.00000,0.00000 100 -0.00745,0.00745,0.00639 0.24756,0.94562,0.14526 -0.42300,0.13950,0.14700 -0.00745,0.00745,0.00639 0.24756,0.94562,0.14526 -0.42285,0.13891,0.14773 -0.06355,-0.05993,0.29800
06/13/24 12:29:02.798731 0.00000,0.00000,0.00000,0.00000,0.00000,0.00000,0.00000,0.00000,0.00000,0.00000,0.00000,0.00000 100 -0.00319,0.00106,-0.00213 0.24487,0.95123,0.15186 -0.43200,0.13650,0.15000 -0.00319,0.00106,-0.00213 0.24487,0.95123,0.15186 -0.43226,0.13652,0.15056 -0.06013,-0.05615,0.30561
06/13/24 12:29:02.837260 0.00000,0.00000,0.00000,0.00000,0.00000,0.00000,0.00000,0.00000,0.00000,0.00000,0.00000,0.00000 100 0.00639,-0.00745,-0.00426 0.24640,0.94110,0.14569 -0.43350,0.13350,0.14850 0.00639,-0.00745,-0.00426 0.24640,0.94110,0.14569 -0.43310,0.13307,0.14866 -0.06189,-0.06435,0.29721
06/13/24 12:29:02.880458 0.00000,0.00000,0.00000,0.00000,0.00000,0.00000,0.00000,0.00000,0.00000,0.00000,0.00000,0.00000 100 -0.01384,-0.00532,0.00532 0.24896,0.94629,0.14648 -0.42750,0.12900,0.14250 -0.01384,-0.00532,0.00532 0.24896,0.94629,0.14648 -0.42728,0.12978,0.14265 -0.06157,-0.05858,0.29805
06/13/24 12:29:02.918989 0.00000,0.00000,0.00000,0.00000,0.00000,0.00000,0.00000,0.00000,0.00000,0.00000,0.00000,0.00000 100 0.01065,-0.01278,0.00532 0.24377,0.94458,0.15350 -0.42600,0.12600,0.14700 0.01065,-0.01278,0.00532 0.24377,0.94458,0.15350 -0.42611,0.12722,0.14726 -0.05623,-0.06229,0.30456
06/13/24 12:29:02.962807 0.00000,0.00000,0.00000,0.00000,0.00000,0.00000,0.00000,0.00000,0.00000,0.00000,0.00000,0.00000 100 -0.00639,0.00745,-0.02342 0.24121,0.94763,0.14789 -0.42600,0.12750,0.14400 -0.00639,0.00745,-0.02342 0.24121,0.94763,0.14789 -0.42812,0.13187,0.14440 -0.06271,-0.06149,0.30549
06/13/24 12:29:03.000649 0.00000,0.00000,0.00000,0.00000,0.00000,0.00000,0.00000,0.00000,0.00000,0.00000,0.00000,0.00000 100 0.00319,-0.01278,-0.00319 0.24603,0.94531,0.14709 -0.43200,0.12900,0.14250 0.00319,-0.01278,-0.00319 0.24603,0.94531,0.14709 -0.43208,0.12920,0.14297 -0.06089,-0.06095,0.30044
06/13/24 12:29:03.044517 0.00000,0.00000,0.00000,0.00000,0.00000,0.00000,0.00000,0.00000,0.00000,0.00000,0.00000,0.00000 100 -0.00426,-0.00106,-0.00532 0.24371,0.94855,0.14368 -0.42450,0.13200,0.14850 -0.00426,-0.00106,-0.00532 0.24371,0.94855,0.14368 -0.42522,0.13201,0.14757 -0.06536,-0.05964,0.30205
06/13/24 12:29:03.082328 0.00000,0.00000,0.00000,0.00000,0.00000,0.00000,0.00000,0.00000,0.00000,0.00000,0.00000,0.00000 100 0.00213,0.01384,-0.01171 0.24323,0.94891,0.14374 -0.43050,0.13650,0.14550 0.00213,0.01384,-0.01171 0.24323,0.94891,0.14374 -0.43038,0.13642,0.14688 -0.06533,-0.05962,0.30279
06/13/24 12:29:03.126235 0.00000,0.00000,0.00000,0.00000,0.00000,0.00000,0.00000,0.00000,0.00000,0.00000,0.00000,0.00000 100 0.00319,-0.01703,0.00532 0.24792,0.94482,0.14697 -0.43350,0.13200,0.14400 0.00319,-0.01703,0.00532 0.24792,0.94482,0.14697 -0.43308,0.13175,0.14571 -0.05925,-0.06042,0.29906
06/13/24 12:29:03.164793 0.00000,0.00000,0.00000,0.00000,0.00000,0.00000,0.00000,0.00000,0.00000,0.00000,0.00000,0.00000 100 0.01490,0.02023,-0.00319 0.24744,0.94354,0.14410 -0.43200,0.13350,0.14700 0.01490,0.02023,-0.00319 0.24744,0.94354,0.14410 -0.43175,0.13275,0.14618 -0.06117,-0.06187,0.29738
06/13/24 12:29:03.208044 0.00000,0.00000,0.00000,0.00000,0.00000,0.00000,0.00000,0.00000,0.00000,0.00000,0.00000,0.00000 100 -0.01597,-0.00639,-0.00319 0.24304,0.95288,0.14795 -0.43500,0.14100,0.15150 -0.01597,-0.00639,-0.00319 0.24304,0.95288,0.14795 -0.43588,0.13801,0.15053 -0.06177,-0.05608,0.30683
06/13/24 12:29:03.246575 0.00000,0.00000,0.00000,0.00000,0.00000,0.00000,0.00000,0.00000,0.00000,0.00000,0.00000,0.00000 100 -0.00426,-0.01703,-0.00213 0.24158,0.94568,0.14703 -0.43200,0.13650,0.14550 -0.00426,-0.01703,-0.00213 0.24158,0.94568,0.14703 -0.43211,0.13724,0.14619 -0.06091,-0.06306,0.30449
06/13/24 12:29:03.289852 0.00000,0.00000,0.00000,0.00000,0.00000,0.00000,0.00000,0.00000,0.00000,0.00000,0.00000,0.00000 100 -0.00639,0.00106,-0.00426 0.24390,0.94897,0.14838 -0.42750,0.13200,0.14850 -0.00639,0.00106,-0.00426 0.24390,0.94897,0.14838 -0.42839,0.13025,0.14964 -0.05962,-0.05891,0.30472
06/13/24 12:29:03.328417 0.00000,0.00000,0.00000,0.00000,0.00000,0.00000,0.00000,0.00000,0.00000,0.00000,0.00000,0.00000 100 -0.00639,-0.00106,0.01597 0.24548,0.94873,0.14795 -0.42900,0.13050,0.14400 -0.00639,-0.00106,0.01597 0.24548,0.94873,0.14795 -0.43070,0.13066,0.14639 -0.05910,-0.05835,0.30337
06/13/24 12:29:03.372217 0.00000,0.00000,0.00000,0.00000,0.00000,0.00000,0.00000,0.00000,0.00000,0.00000,0.00000,0.00000 100 -0.00106,-0.00319,-0.00213 0.23981,0.94940,0.14343 -0.42450,0.13050,0.14700 -0.00106,-0.00319,-0.00213 0.23981,0.94940,0.14343 -0.42474,0.13065,0.14760 -0.06513,-0.06112,0.30612
06/13/24 12:29:03.410284 0.00000,0.00000,0.00000,0.00000,0.00000,0.00000,0.00000,0.00000,0.00000,0.00000,0.00000,0.00000 100 0.02129,0.00000,0.00213 0.24622,0.93823,0.14539 -0.42900,0.12900,0.14700 0.02129,0.00000,0.00213 0.24622,0.93823,0.14539 -0.42842,0.13020,0.14808 -0.05778,-0.06709,0.29730
06/13/24 12:29:03.454038 0.00000,0.00000,0.00000,0.00000,0.00000,0.00000,0.00000,0.00000,0.00000,0.00000,0.00000,0.00000 100 -0.00532,-0.00745,0.01810 0.24585,0.94708,0.14197 -0.43050,0.13350,0.14250 -0.00532,-0.00745,0.01810 0.24585,0.94708,0.14197 -0.43074,0.13255,0.14287 -0.06331,-0.06011,0.30028
06/13/24 12:29:03.497532 0.00000,0.00000,0.00000,0.00000,0.00000,0.00000,0.00000,0.00000,0.00000,0.00000,0.00000,0.00000 100 0.01490,-0.00426,0.00532 0.25134,0.94550,0.15314 -0.42900,0.12750,0.14700 0.01490,-0.00426,0.00532 0.25134,0.94550,0.15314 -0.42851,0.12884,0.14660 -0.05070,-0.05777,0.30036
06/13/24 12:29:03.535903 0.00000,0.00000,0.00000,0.00000,0.00000,0.00000,0.00000,0.00000,0.00000,0.00000,0.00000,0.00000 100 -0.00426,0.01597,-0.00106 0.24567,0.94556,0.15039 -0.43050,0.13800,0.15000 -0.00426,0.01597,-0.00106 0.24567,0.94556,0.15039 -0.43063,0.13736,0.14885 -0.05494,-0.06090,0.30352
06/13/24 12:29:03.579359 0.00000,0.00000,0.00000,0.00000,0.00000,0.00000,0.00000,0.00000,0.00000,0.00000,0.00000,0.00000 100 0.00852,-0.00639,0.00958 0.24847,0.94855,0.14532 -0.42750,0.13050,0.14700 0.00852,-0.00639,0.00958 0.24847,0.94855,0.14532 -0.42876,0.13015,0.14726 -0.05902,-0.05730,0.30073
06/13/24 12:29:03.617970 0.00000,0.00000,0.00000,0.00000,0.00000,0.00000,0.00000,0.00000,0.00000,0.00000,0.00000,0.00000 100 0.01278,-0.01703,0.00319 0.24829,0.94757,0.14807 -0.43500,0.13200,0.14850 0.01278,-0.01703,0.00319 0.24829,0.94757,0.14807 -0.43375,0.13219,0.14926 -0.05605,-0.05803,0.30169
06/13/24 12:29:03.661793 0.00000,0.00000,0.00000,0.00000,0.00000,0.00000,0.00000,0.00000,0.00000,0.00000,0.00000,0.00000 100 -0.00745,0.01171,0.00532 0.24493,0.94690,0.14130 -0.42900,0.13350,0.14700 -0.00745,0.01171,0.00532 0.24493,0.94690,0.14130 -0.42836,0.13476,0.14802 -0.06288,-0.06086,0.30106
06/13/24 12:29:03.699916 0.00000,0.00000,0.00000,0.00000,0.00000,0.00000,0.00000,0.00000,0.00000,0.00000,0.00000,0.00000 100 -0.01171,-0.00213,0.00426 0.24548,0.94232,0.14636 -0.43200,0.13050,0.14700 -0.01171,-0.00213,0.00426 0.24548,0.94232,0.14636 -0.43141,0.13063,0.14756 -0.05670,-0.06407,0.30080
06/13/24 12:29:03.743704 0.00000,0.00000,0.00000,0.00000,0.00000,0.00000,0.00000,0.00000,0.00000,0.00000,0.00000,0.00000 100 0.00213,-0.01810,0.00213 0.24890,0.94849,0.14752 -0.43050,0.12900,0.14550 0.00213,-0.01810,0.00213 0.24890,0.94849,0.14752 -0.43052,0.13004,0.14623 -0.05621,-0.05706,0.30174
06/13/24 12:29:03.781788 0.00000,0.00000,0.00000,0.00000,0.00000,0.00000,0.00000,0.00000,0.00000,0.00000,0.00000,0.00000 100 0.00852,0.01703,0.00106 0.24463,0.94342,0.14844 -0.43350,0.13500,0.15150 0.00852,0.01703,0.00106 0.24463,0.94342,0.14844 -0.43201,0.13471,0.15101 -0.05515,-0.06351,0.30308
06/13/24 12:29:03.825540 0.00000,0.00000,0.00000,0.00000,0.00000,0.00000,0.00000,0.00000,0.00000,0.00000,0.00000,0.00000 100 -0.00213,0.00319,-0.00852 0.24280,0.94794,0.15063 -0.43050,0.13800,0.14400 -0.00213,0.00319,-0.00852 0.24280,0.94794,0.15063 -0.43027,0.13766,0.14488 -0.05494,-0.06055,0.30762
06/13/24 12:29:03.864157 0.00000,0.00000,0.00000,0.00000,0.00000,0.00000,0.00000,0.00000,0.00000,0.00000,0.00000,0.00000 100 -0.01278,0.00639,-0.00958 0.25079,0.94507,0.15222 -0.43200,0.13650,0.14250 -0.01278,0.00639,-0.00958 0.25079,0.94507,0.15222 -0.43216,0.13503,0.14475 -0.05004,-0.05861,0.30084
06/13/24 12:29:03.907387 0.00000,0.00000,0.00000,0.00000,0.00000,0.00000,0.00000,0.00000,0.00000,0.00000,0.00000,0.00000 100 0.00958,-0.01597,0.00319 0.24414,0.94794,0.14581 -0.43200,0.13350,0.15000 0.00958,-0.01597,0.00319 0.24414,0.94794,0.14581 -0.43153,0.13303,0.14988 -0.05852,-0.06019,0.30459
06/13/24 12:29:03.945985 0.00000,0.00000,0.00000,0.00000,0.00000,0.00000,0.00000,0.00000,0.00000,0.00000,0.00000,0.00000 100 -0.00426,0.01916,-0.00106 0.24323,0.94952,0.14441 -0.42900,0.13500,0.15000 -0.00426,0.01916,-0.00106 0.24323,0.94952,0.14441 -0.42918,0.13368,0.14993 -0.06022,-0.05941,0.30541
06/13/24 12:29:03.989284 0.00000,0.00000,0.00000,0.00000,0.00000,0.00000,0.00000,0.00000,0.00000,0.00000,0.00000,0.00000 100 -0.01384,0.01065,0.00106 0.25006,0.94977,0.14673 -0.43500,0.13200,0.15000 -0.01384,0.01065,0.00106 0.25006,0.94977,0.14673 -0.43475,0.13236,0.14979 -0.05588,-0.05533,0.30101
06/13/24 12:29:04.027860 0.00000,0.00000,0.00000,0.00000,0.00000,0.00000,0.00000,0.00000,0.00000,0.00000,0.00000,0.00000 100 -0.01384,-0.02768,-0.01065 0.25238,0.94592,0.14093 -0.43050,0.13650,0.14550 -0.01384,-0.02768,-0.01065 0.25238,0.94592,0.14093 -0.43078,0.13622,0.14512 -0.05919,-0.05779,0.29506
06/13/24 12:29:04.071336 0.00000,0.00000,0.00000,0.00000,0.00000,0.00000,0.00000,0.00000,0.00000,0.00000,0.00000,0.00000 100 -0.00319,0.00852,-0.00426 0.24963,0.95026,0.14758 -0.43800,0.13650,0.14550 -0.00319,0.00852,-0.00426 0.24963,0.95026,0.14758 -0.43667,0.13706,0.14635 -0.05522,-0.05513,0.30210
06/13/24 12:29:04.109737 0.00000,0.00000,0.00000,0.00000,0.00000,0.00000,0.00000,0.00000,0.00000,0.00000,0.00000,0.00000 100 0.00639,-0.00745,-0.00852 0.24536,0.94574,0.14569 -0.42900,0.13650,0.15000 0.00639,-0.00745,-0.00852 0.24536,0.94574,0.14569 -0.43000,0.13573,0.14995 -0.05670,-0.06127,0.30237
06/13/24 12:29:04.153688 0.00000,0.00000,0.00000,0.00000,0.00000,0.00000,0.00000,0.00000,0.00000,0.00000,0.00000,0.00000 100 -0.00426,0.00532,-0.00426 0.25354,0.94586,0.14819 -0.42600,0.12900,0.14100 -0.00426,0.00532,-0.00426 0.25354,0.94586,0.14819 -0.42676,0.13268,0.14214 -0.05150,-0.05661,0.29708
06/13/24 12:29:04.191552 0.00000,0.00000,0.00000,0.00000,0.00000,0.00000,0.00000,0.00000,0.00000,0.00000,0.00000,0.00000 100 0.00000,0.00426,0.00852 0.24768,0.94434,0.14636 -0.42600,0.13200,0.15000 0.00000,0.00426,0.00852 0.24768,0.94434,0.14636 -0.42624,0.13210,0.14990 -0.05431,-0.06120,0.30040
06/13/24 12:29:04.235489 0.00000,0.00000,0.00000,0.00000,0.00000,0.00000,0.00000,0.00000,0.00000,0.00000,0.00000,0.00000 100 0.00213,0.00000,0.00106 0.24414,0.94733,0.15118 -0.43050,0.13050,0.15000 0.00213,0.00000,0.00106 0.24414,0.94733,0.15118 -0.43217,0.13088,0.14819 -0.05181,-0.06022,0.30661
06/13/24 12:29:04.273559 0.00000,0.00000,0.00000,0.00000,0.00000,0.00000,0.00000,0.00000,0.00000,0.00000,0.00000,0.00000 100 -0.00426,-0.01171,-0.01384 0.24475,0.94806,0.14514 -0.42600,0.13200,0.14250 -0.00426,-0.01171,-0.01384 0.24475,0.94806,0.14514 -0.42815,0.13055,0.14443 -0.05714,-0.05972,0.30395
06/13/24 12:29:04.317318 0.00000,0.00000,0.00000,0.00000,0.00000,0.00000,0.00000,0.00000,0.00000,0.00000,0.00000,0.00000 100 -0.00319,0.00958,0.00745 0.24396,0.94440,0.15289 -0.43200,0.13200,0.15150 -0.00319,0.00958,0.00745 0.24396,0.94440,0.15289 -0.43206,0.13387,0.15009 -0.04936,-0.06267,0.30620
06/13/24 12:29:04.355913 0.00000,0.00000,0.00000,0.00000,0.00000,0.00000,0.00000,0.00000,0.00000,0.00000,0.00000,0.00000 100 -0.00639,-0.01065,0.01171 0.24817,0.95062,0.14508 -0.42750,0.13650,0.14250 -0.00639,-0.01065,0.01171 0.24817,0.95062,0.14508 -0.42870,0.13404,0.14566 -0.05645,-0.05577,0.30260
06/13/24 12:29:04.399222 0.00000,0.00000,0.00000,0.00000,0.00000,0.00000,0.00000,0.00000,0.00000,0.00000,0.00000,0.00000 100 0.00213,0.01384,0.01810 0.24030,0.94574,0.14648 -0.43200,0.13200,0.14250 0.00213,0.01384,0.01810 0.24030,0.94574,0.14648 -0.43165,0.13171,0.14335 -0.05600,-0.06400,0.30722
06/13/24 12:29:04.437780 0.00000,0.00000,0.00000,0.00000,0.00000,0.00000,0.00000,0.00000,0.00000,0.00000,0.00000,0.00000 100 0.00745,0.00958,0.00852 0.24725,0.94562,0.14758 -0.42450,0.13350,0.14550 0.00745,0.00958,0.00852 0.24725,0.94562,0.14758 -0.42680,0.13510,0.14722 -0.05247,-0.06037,0.30241
06/13/24 12:29:04.481090 0.00000,0.00000,0.00000,0.00000,0.00000,0.00000,0.00000,0.00000,0.00000,0.00000,0.00000,0.00000 100 -0.01490,-0.00319,0.00852 0.24622,0.93884,0.15076 -0.43350,0.13350,0.15300 -0.01490,-0.00319,0.00852 0.24622,0.93884,0.15076 -0.43344,0.13368,0.15256 -0.04789,-0.06642,0.30153
06/13/24 12:29:04.519644 0.00000,0.00000,0.00000,0.00000,0.00000,0.00000,0.00000,0.00000,0.00000,0.00000,0.00000,0.00000 100 0.00213,-0.00532,0.01384 0.24109,0.94794,0.15051 -0.43500,0.13500,0.14700 0.00213,-0.00532,0.01384 0.24109,0.94794,0.15051 -0.43371,0.13402,0.14692 -0.05221,-0.06154,0.30971
06/13/24 12:29:04.563423 0.00000,0.00000,0.00000,0.00000,0.00000,0.00000,0.00000,0.00000,0.00000,0.00000,0.00000,0.00000 100 -0.01278,-0.00213,0.00319 0.24512,0.94415,0.14941 -0.42900,0.13800,0.14700 -0.01278,-0.00213,0.00319 0.24512,0.94415,0.14941 -0.42992,0.13704,0.14694 -0.05057,-0.06271,0.30457
06/13/24 12:29:04.601534 0.00000,0.00000,0.00000,0.00000,0.00000,0.00000,0.00000,0.00000,0.00000,0.00000,0.00000,0.00000 100 0.00213,0.00106,0.00852 0.24451,0.94824,0.14832 -0.43050,0.13650,0.14700 0.00213,0.00106,0.00852 0.24451,0.94824,0.14832 -0.43056,0.13604,0.14743 -0.05258,-0.05969,0.30657
06/13/24 12:29:04.645284 0.00000,0.00000,0.00000,0.00000,0.00000,0.00000,0.00000,0.00000,0.00000,0.00000,0.00000,0.00000 100 -0.00106,-0.01384,-0.00639 0.24524,0.95502,0.14923 -0.43050,0.13200,0.15150 -0.00106,-0.01384,-0.00639 0.24524,0.95502,0.14923 -0.43077,0.13184,0.15122 -0.05303,-0.05352,0.30957
06/13/24 12:29:04.683408 0.00000,0.00000,0.00000,0.00000,0.00000,0.00000,0.00000,0.00000,0.00000,0.00000,0.00000,0.00000 100 0.01703,-0.00319,-0.01384 0.24597,0.94843,0.14587 -0.42750,0.13950,0.15000 0.01703,-0.00319,-0.01384 0.24597,0.94843,0.14587 -0.42812,0.13888,0.14910 -0.05373,-0.05899,0.30482
06/13/24 12:29:04.727354 0.00000,0.00000,0.00000,0.00000,0.00000,0.00000,0.00000,0.00000,0.00000,0.00000,0.00000,0.00000 100 0.00000,0.00106,0.00745 0.24683,0.94781,0.14398 -0.42450,0.13200,0.15300 0.00000,0.00106,0.00745 0.24683,0.94781,0.14398 -0.42663,0.13329,0.15292 -0.05448,-0.05928,0.30345
06/13/24 12:29:04.765252 0.00000,0.00000,0.00000,0.00000,0.00000,0.00000,0.00000,0.00000,0.00000,0.00000,0.00000,0.00000 100 0.00639,-0.00319,-0.01703 0.24750,0.94434,0.14276 -0.43800,0.13650,0.14850 0.00639,-0.00319,-0.01703 0.24750,0.94434,0.14276 -0.43813,0.13575,0.14808 -0.05417,-0.06189,0.30071
06/13/24 12:29:04.809271 0.00000,0.00000,0.00000,0.00000,0.00000,0.00000,0.00000,0.00000,0.00000,0.00000,0.00000,0.00000 100 -0.01065,-0.01384,0.00426 0.24341,0.95020,0.14636 -0.43350,0.12750,0.14700 -0.01065,-0.01384,0.00426 0.24341,0.95020,0.14636 -0.43301,0.12858,0.14650 -0.05364,-0.05896,0.30840
06/13/24 12:29:04.847841 0.00000,0.00000,0.00000,0.00000,0.00000,0.00000,0.00000,0.00000,0.00000,0.00000,0.00000,0.00000 100 -0.01171,0.01278,0.00532 0.25037,0.94763,0.14709 -0.43050,0.12750,0.14550 -0.01171,0.01278,0.00532 0.25037,0.94763,0.14709 -0.43199,0.12827,0.14672 -0.05006,-0.05738,0.30215
06/13/24 12:29:04.891128 0.00000,0.00000,0.00000,0.00000,0.00000,0.00000,0.00000,0.00000,0.00000,0.00000,0.00000,0.00000 100 0.00000,0.00639,-0.00319 0.24280,0.94653,0.14905 -0.42750,0.13050,0.14250 0.00000,0.00639,-0.00319 0.24280,0.94653,0.14905 -0.42688,0.13032,0.14595 -0.05017,-0.06219,0.30837
06/13/24 12:29:04.929705 0.00000,0.00000,0.00000,0.00000,0.00000,0.00000,0.00000,0.00000,0.00000,0.00000,0.00000,0.00000 100 0.01278,-0.00213,-0.00106 0.24365,0.96301,0.14673 -0.42900,0.13350,0.15000 0.01278,-0.00213,-0.00106 0.24365,0.96301,0.14673 -0.43096,0.13396,0.14936 -0.05613,-0.04805,0.31454
06/13/24 12:29:04.972972 0.00000,0.00000,0.00000,0.00000,0.00000,0.00000,0.00000,0.00000,0.00000,0.00000,0.00000,0.00000 100 -0.00213,-0.00639,0.00745 0.23779,0.94623,0.15240 -0.43200,0.13350,0.14400 -0.00213,-0.00639,0.00745 0.23779,0.94623,0.15240 -0.43193,0.13386,0.14611 -0.04811,-0.06492,0.31373
06/13/24 12:29:05.011531 0.00000,0.00000,0.00000,0.00000,0.00000,0.00000,0.00000,0.00000,0.00000,0.00000,0.00000,0.00000 100 -0.00106,0.00106,0.00852 0.24988,0.94720,0.14270 -0.43650,0.13500,0.15000 -0.00106,0.00106,0.00852 0.24988,0.94720,0.14270 -0.43228,0.13599,0.14844 -0.05306,-0.05840,0.30095
06/13/24 12:29:05.055301 0.00000,0.00000,0.00000,0.00000,0.00000,0.00000,0.00000,0.00000,0.00000,0.00000,0.00000,0.00000 100 -0.02449,-0.01384,-0.01171 0.24738,0.94592,0.15027 -0.42900,0.13350,0.15150 -0.02449,-0.01384,-0.01171 0.24738,0.94592,0.15027 -0.42885,0.13333,0.15101 -0.04633,-0.06029,0.30551
06/13/24 12:29:05.093415 0.00000,0.00000,0.00000,0.00000,0.00000,0.00000,0.00000,0.00000,0.00000,0.00000,0.00000,0.00000 100 -0.00532,0.02023,-0.00532 0.24725,0.95300,0.14691 -0.43050,0.14100,0.14550 -0.00532,0.02023,-0.00532 0.24725,0.95300,0.14691 -0.43084,0.13938,0.14705 -0.05137,-0.05461,0.30747
06/13/24 12:29:05.137207 0.00000,0.00000,0.00000,0.00000,0.00000,0.00000,0.00000,0.00000,0.00000,0.00000,0.00000,0.00000 100 -0.00639,-0.01171,0.00852 0.24860,0.94305,0.14819 -0.42150,0.12900,0.14400 -0.00639,-0.01171,0.00852 0.24860,0.94305,0.14819 -0.42271,0.13014,0.14478 -0.04671,-0.06225,0.30258
06/13/24 12:29:05.180648 0.00000,0.00000,0.00000,0.00000,0.00000,0.00000,0.00000,0.00000,0.00000,0.00000,0.00000,0.00000 100 0.01171,0.00106,0.01916 0.24817,0.95184,0.14886 -0.43650,0.13800,0.14250 0.01171,0.00106,0.01916 0.24817,0.95184,0.14886 -0.43513,0.13643,0.14356 -0.04810,-0.05514,0.30770
06/13/24 12:29:05.219064 0.00000,0.00000,0.00000,0.00000,0.00000,0.00000,0.00000,0.00000,0.00000,0.00000,0.00000,0.00000 100 -0.00639,-0.00213,-0.02023 0.24347,0.94867,0.14722 -0.42750,0.12600,0.14700 -0.00639,-0.00213,-0.02023 0.24347,0.94867,0.14722 -0.42803,0.12671,0.14745 -0.05004,-0.06047,0.30935
06/13/24 12:29:05.257619 0.00000,0.00000,0.00000,0.00000,0.00000,0.00000,0.00000,0.00000,0.00000,0.00000,0.00000,0.00000 100 -0.02129,0.00639,-0.00852 0.24878,0.94214,0.15021 -0.43050,0.12750,0.14700 -0.02129,0.00639,-0.00852 0.24878,0.94214,0.15021 -0.42989,0.12808,0.14672 -0.04413,-0.06296,0.30346
06/13/24 12:29:05.301067 0.00000,0.00000,0.00000,0.00000,0.00000,0.00000,0.00000,0.00000,0.00000,0.00000,0.00000,0.00000 100 0.00106,0.00426,-0.00958 0.24725,0.94843,0.15033 -0.42750,0.12900,0.14850 0.00106,0.00426,-0.00958 0.24725,0.94843,0.15033 -0.42693,0.12997,0.14698 -0.04611,-0.05850,0.30773
06/13/24 12:29:05.344847 0.00000,0.00000,0.00000,0.00000,0.00000,0.00000,0.00000,0.00000,0.00000,0.00000,0.00000,0.00000 100 -0.01278,0.00852,0.00532 0.24872,0.94470,0.14648 -0.42300,0.12900,0.14550 -0.01278,0.00852,0.00532 0.24872,0.94470,0.14648 -0.42420,0.12997,0.14526 -0.04797,-0.06122,0.30358
06/13/24 12:29:05.382939 0.00000,0.00000,0.00000,0.00000,0.00000,0.00000,0.00000,0.00000,0.00000,0.00000,0.00000,0.00000 100 0.00852,0.00852,-0.00319 0.24634,0.95343,0.15131 -0.43050,0.13650,0.14850 0.00852,0.00852,-0.00319 0.24634,0.95343,0.15131 -0.43060,0.13678,0.14782 -0.04670,-0.05484,0.31161
06/13/24 12:29:05.426726 0.00000,0.00000,0.00000,0.00000,0.00000,0.00000,0.00000,0.00000,0.00000,0.00000,0.00000,0.00000 100 -0.00958,0.00532,-0.01810 0.25183,0.94769,0.14722 -0.43350,0.13200,0.15000 -0.00958,0.00532,-0.01810 0.25183,0.94769,0.14722 -0.43234,0.13134,0.15089 -0.04669,-0.05698,0.30288
06/13/24 12:29:05.464849 0.00000,0.00000,0.00000,0.00000,0.00000,0.00000,0.00000,0.00000,0.00000,0.00000,0.00000,0.00000 100 0.00426,-0.00213,0.01384 0.24646,0.94720,0.14948 -0.42900,0.13350,0.14550 0.00426,-0.00213,0.01384 0.24646,0.94720,0.14948 -0.42939,0.13510,0.14500 -0.04625,-0.06013,0.30789
06/13/24 12:29:05.508609 0.00000,0.00000,0.00000,0.00000,0.00000,0.00000,0.00000,0.00000,0.00000,0.00000,0.00000,0.00000 100 0.01171,-0.00958,0.00213 0.24396,0.95007,0.14832 -0.43200,0.13200,0.14850 0.01171,-0.00958,0.00213 0.24396,0.95007,0.14832 -0.43199,0.13183,0.14870 -0.04850,-0.05918,0.31090
06/13/24 12:29:05.547240 0.00000,0.00000,0.00000,0.00000,0.00000,0.00000,0.00000,0.00000,0.00000,0.00000,0.00000,0.00000 100 0.00639,0.00639,-0.00532 0.24231,0.94867,0.15582 -0.43200,0.12900,0.14850 0.00639,0.00639,-0.00532 0.24231,0.94867,0.15582 -0.43084,0.13039,0.14867 -0.04165,-0.06069,0.31453
06/13/24 12:29:05.590488 0.00000,0.00000,0.00000,0.00000,0.00000,0.00000,0.00000,0.00000,0.00000,0.00000,0.00000,0.00000 100 0.00000,-0.00745,0.01171 0.24188,0.94897,0.14716 -0.43050,0.13200,0.15150 0.00000,-0.00745,0.01171 0.24188,0.94897,0.14716 -0.43053,0.13231,0.15105 -0.04928,-0.06125,0.31151
06/13/24 12:29:05.629031 0.00000,0.00000,0.00000,0.00000,0.00000,0.00000,0.00000,0.00000,0.00000,0.00000,0.00000,0.00000 100 -0.00106,-0.01597,0.00000 0.25031,0.94598,0.14789 -0.42900,0.13500,0.14400 -0.00106,-0.01597,0.00000 0.25031,0.94598,0.14789 -0.42979,0.13531,0.14362 -0.04511,-0.05927,0.30399
06/13/24 12:29:05.672302 0.00000,0.00000,0.00000,0.00000,0.00000,0.00000,0.00000,0.00000,0.00000,0.00000,0.00000,0.00000 100 -0.00852,0.02023,0.01384 0.24615,0.94775,0.14880 -0.43200,0.13500,0.15450 -0.00852,0.02023,0.01384 0.24615,0.94775,0.14880 -0.43184,0.13476,0.15336 -0.04606,-0.05999,0.30858
06/13/24 12:29:05.710902 0.00000,0.00000,0.00000,0.00000,0.00000,0.00000,0.00000,0.00000,0.00000,0.00000,0.00000,0.00000 100 0.00958,-0.01065,0.00426 0.24701,0.94580,0.14307 -0.43200,0.13800,0.15000 0.00958,-0.01065,0.00426 0.24701,0.94580,0.14307 -0.43196,0.13782,0.14974 -0.05040,-0.06164,0.30490
06/13/24 12:29:05.754851 0.00000,0.00000,0.00000,0.00000,0.00000,0.00000,0.00000,0.00000,0.00000,0.00000,0.00000,0.00000 100 -0.00213,-0.02023,0.00319 0.24628,0.94629,0.15051 -0.42750,0.13350,0.14400 -0.00213,-0.02023,0.00319 0.24628,0.94629,0.15051 -0.42876,0.13254,0.14306 -0.04378,-0.06114,0.30886
06/13/24 12:29:05.792786 0.00000,0.00000,0.00000,0.00000,0.00000,0.00000,0.00000,0.00000,0.00000,0.00000,0.00000,0.00000 100 0.01065,-0.00213,0.01490 0.24457,0.94098,0.14575 -0.42300,0.12900,0.14700 0.01065,-0.00213,0.01490 0.24457,0.94098,0.14575 -0.42322,0.12868,0.14725 -0.04712,-0.06690,0.30594
06/13/24 12:29:05.836698 0.00000,0.00000,0.00000,0.00000,0.00000,0.00000,0.00000,0.00000,0.00000,0.00000,0.00000,0.00000 100 -0.00532,0.02236,0.00213 0.24762,0.94855,0.14636 -0.43050,0.13500,0.14400 -0.00532,0.02236,0.00213 0.24762,0.94855,0.14636 -0.42904,0.13315,0.14519 -0.04777,-0.05891,0.30748
06/13/24 12:29:05.874542 0.00000,0.00000,0.00000,0.00000,0.00000,0.00000,0.00000,0.00000,0.00000,0.00000,0.00000,0.00000 100 0.00532,0.00000,0.00958 0.24506,0.94629,0.15399 -0.43500,0.13200,0.14850 0.00532,0.00000,0.00958 0.24506,0.94629,0.15399 -0.43471,0.13224,0.14848 -0.04069,-0.06166,0.31159
06/13/24 12:29:05.918443 0.00000,0.00000,0.00000,0.00000,0.00000,0.00000,0.00000,0.00000,0.00000,0.00000,0.00000,0.00000 100 0.00639,-0.00639,-0.01597 0.24579,0.94800,0.14221 -0.42300,0.13500,0.15000 0.00639,-0.00639,-0.01597 0.24579,0.94800,0.14221 -0.42637,0.13432,0.14909 -0.05136,-0.06057,0.30686
06/13/24 12:29:05.957042 0.00000,0.00000,0.00000,0.00000,0.00000,0.00000,0.00000,0.00000,0.00000,0.00000,0.00000,0.00000 100 -0.03833,0.00852,-0.00426 0.24731,0.95081,0.14410 -0.42900,0.13050,0.14550 -0.03833,0.00852,-0.00426 0.24731,0.95081,0.14410 -0.43038,0.13080,0.14611 -0.05003,-0.05730,0.30785
06/13/24 12:29:06.000299 0.00000,0.00000,0.00000,0.00000,0.00000,0.00000,0.00000,0.00000,0.00000,0.00000,0.00000,0.00000 100 -0.01916,0.01065,0.00958 0.24768,0.94806,0.14594 -0.43200,0.13050,0.14400 -0.01916,0.01065,0.00958 0.24768,0.94806,0.14594 -0.43144,0.13023,0.14423 -0.04770,-0.05924,0.30684
06/13/24 12:29:06.038884 0.00000,0.00000,0.00000,0.00000,0.00000,0.00000,0.00000,0.00000,0.00000,0.00000,0.00000,0.00000 100 0.01384,-0.00532,-0.00532 0.24622,0.94562,0.14502 -0.43050,0.13950,0.15150 0.01384,-0.00532,-0.00532 0.24622,0.94562,0.14502 -0.43179,0.13945,0.15155 -0.04807,-0.06221,0.30672
06/13/24 12:29:06.082142 0.00000,0.00000,0.00000,0.00000,0.00000,0.00000,0.00000,0.00000,0.00000,0.00000,0.00000,0.00000 100 -0.00532,0.01916,0.00213 0.24487,0.95093,0.14899 -0.42900,0.13050,0.15450 -0.00532,0.01916,0.00213 0.24487,0.95093,0.14899 -0.42946,0.13095,0.15328 -0.04590,-0.05820,0.31198
06/13/24 12:29:06.120671 0.00000,0.00000,0.00000,0.00000,0.00000,0.00000,0.00000,0.00000,0.00000,0.00000,0.00000,0.00000 100 -0.00852,-0.00532,0.00106 0.24738,0.94934,0.14410 -0.42900,0.13350,0.15300 -0.00852,-0.00532,0.00106 0.24738,0.94934,0.14410 -0.42793,0.13233,0.15172 -0.04910,-0.05859,0.30749
06/13/24 12:29:06.163916 0.00000,0.00000,0.00000,0.00000,0.00000,0.00000,0.00000,0.00000,0.00000,0.00000,0.00000,0.00000 100 -0.01065,-0.01171,0.01065 0.24615,0.94336,0.15021 -0.43200,0.13500,0.14700 -0.01065,-0.01171,0.01065 0.24615,0.94336,0.15021 -0.43143,0.13523,0.14785 -0.04209,-0.06383,0.30806
06/13/24 12:29:06.202469 0.00000,0.00000,0.00000,0.00000,0.00000,0.00000,0.00000,0.00000,0.00000,0.00000,0.00000,0.00000 100 0.00532,-0.01490,-0.00319 0.25116,0.95050,0.15125 -0.43050,0.13800,0.14700 0.00532,-0.01490,-0.00319 0.25116,0.95050,0.15125 -0.42933,0.13713,0.14826 -0.04140,-0.05509,0.30794
06/13/24 12:29:06.246178 0.00000,0.00000,0.00000,0.00000,0.00000,0.00000,0.00000,0.00000,0.00000,0.00000,0.00000,0.00000 100 -0.01278,-0.00213,0.00319 0.24353,0.94904,0.14758 -0.43500,0.13350,0.14850 -0.01278,-0.00213,0.00319 0.24353,0.94904,0.14758 -0.43550,0.13276,0.14827 -0.04666,-0.06066,0.31181
06/13/24 12:29:06.284259 0.00000,0.00000,0.00000,0.00000,0.00000,0.00000,0.00000,0.00000,0.00000,0.00000,0.00000,0.00000 100 -0.00852,0.00745,-0.00426 0.24548,0.94574,0.15009 -0.43200,0.13050,0.14700 -0.00852,0.00745,-0.00426 0.24548,0.94574,0.15009 -0.43184,0.13098,0.14580 -0.04272,-0.06222,0.30977
06/13/24 12:29:06.327962 0.00000,0.00000,0.00000,0.00000,0.00000,0.00000,0.00000,0.00000,0.00000,0.00000,0.00000,0.00000 100 0.00000,0.00319,-0.00426 0.24463,0.94672,0.15326 -0.43350,0.13350,0.14550 0.00000,0.00319,-0.00426 0.24463,0.94672,0.15326 -0.43263,0.13362,0.14534 -0.04037,-0.06159,0.31203
06/13/24 12:29:06.366046 0.00000,0.00000,0.00000,0.00000,0.00000,0.00000,0.00000,0.00000,0.00000,0.00000,0.00000,0.00000 100 0.00213,-0.02236,0.00000 0.24481,0.95264,0.14520 -0.42750,0.13800,0.14100 0.00213,-0.02236,0.00000 0.24481,0.95264,0.14520 -0.42752,0.13724,0.14186 -0.04884,-0.05707,0.31150
06/13/24 12:29:06.409954 0.00000,0.00000,0.00000,0.00000,0.00000,0.00000,0.00000,0.00000,0.00000,0.00000,0.00000,0.00000 100 0.00213,0.00319,0.00106 0.24786,0.94800,0.14673 -0.42600,0.13350,0.14550 0.00213,0.00319,0.00106 0.24786,0.94800,0.14673 -0.42789,0.13599,0.14347 -0.04477,-0.05922,0.30756
06/13/24 12:29:06.448352 0.00000,0.00000,0.00000,0.00000,0.00000,0.00000,0.00000,0.00000,0.00000,0.00000,0.00000,0.00000 100 0.00213,0.02129,-0.00852 0.24048,0.94098,0.14685 -0.42600,0.13500,0.14400 0.00213,0.02129,-0.00852 0.24048,0.94098,0.14685 -0.42594,0.13493,0.14430 -0.04488,-0.06904,0.31006
06/13/24 12:29:06.491764 0.00000,0.00000,0.00000,0.00000,0.00000,0.00000,0.00000,0.00000,0.00000,0.00000,0.00000,0.00000 100 -0.00745,-0.00213,-0.00532 0.25085,0.94965,0.14722 -0.43650,0.13200,0.13800 -0.00745,-0.00213,-0.00532 0.25085,0.94965,0.14722 -0.43540,0.13279,0.14032 -0.04367,-0.05621,0.30625
06/13/24 12:29:06.530303 0.00000,0.00000,0.00000,0.00000,0.00000,0.00000,0.00000,0.00000,0.00000,0.00000,0.00000,0.00000 100 -0.00639,0.00213,0.00852 0.24817,0.94580,0.14758 -0.43050,0.13800,0.15300 -0.00639,0.00213,0.00852 0.24817,0.94580,0.14758 -0.43062,0.13715,0.15072 -0.04277,-0.06087,0.30678
06/13/24 12:29:06.573556 0.00000,0.00000,0.00000,0.00000,0.00000,0.00000,0.00000,0.00000,0.00000,0.00000,0.00000,0.00000 100 0.00319,-0.00319,0.00639 0.24219,0.94617,0.14856 -0.43050,0.13500,0.15150 0.00319,-0.00319,0.00639 0.24219,0.94617,0.14856 -0.42952,0.13256,0.15054 -0.04347,-0.06369,0.31207
06/13/24 12:29:06.617267 0.00000,0.00000,0.00000,0.00000,0.00000,0.00000,0.00000,0.00000,0.00000,0.00000,0.00000,0.00000 100 0.00319,0.02981,-0.00426 0.24756,0.94568,0.14874 -0.43050,0.13050,0.14400 0.00319,0.02981,-0.00426 0.24756,0.94568,0.14874 -0.43057,0.13109,0.14399 -0.04116,-0.06118,0.30765
06/13/24 12:29:06.655779 0.00000,0.00000,0.00000,0.00000,0.00000,0.00000,0.00000,0.00000,0.00000,0.00000,0.00000,0.00000 100 0.01278,-0.02342,0.00426 0.24542,0.95178,0.14777 -0.44250,0.13800,0.14550 0.01278,-0.02342,0.00426 0.24542,0.95178,0.14777 -0.44128,0.13529,0.14554 -0.04424,-0.05730,0.31195
06/13/24 12:29:06.699021 0.00000,0.00000,0.00000,0.00000,0.00000,0.00000,0.00000,0.00000,0.00000,0.00000,0.00000,0.00000 100 -0.01703,-0.00532,0.00106 0.24591,0.94940,0.15033 -0.43200,0.13200,0.14250 -0.01703,-0.00532,0.00106 0.24591,0.94940,0.15033 -0.43119,0.13181,0.14295 -0.04093,-0.05884,0.31140
06/13/24 12:29:06.737596 0.00000,0.00000,0.00000,0.00000,0.00000,0.00000,0.00000,0.00000,0.00000,0.00000,0.00000,0.00000 100 -0.00106,-0.01703,-0.01597 0.24719,0.95001,0.14050 -0.42750,0.13350,0.15300 -0.00106,-0.01703,-0.01597 0.24719,0.95001,0.14050 -0.42869,0.13300,0.15222 -0.04928,-0.05828,0.30676
06/13/24 12:29:06.780833 0.00000,0.00000,0.00000,0.00000,0.00000,0.00000,0.00000,0.00000,0.00000,0.00000,0.00000,0.00000 100 0.01065,0.01490,0.00000 0.24695,0.95172,0.14722 -0.42300,0.13050,0.14850 0.01065,0.01490,0.00000 0.24695,0.95172,0.14722 -0.42378,0.13071,0.14829 -0.04342,-0.05651,0.31043
06/13/24 12:29:06.819374 0.00000,0.00000,0.00000,0.00000,0.00000,0.00000,0.00000,0.00000,0.00000,0.00000,0.00000,0.00000 100 0.00745,-0.02874,0.00000 0.24646,0.94409,0.14459 -0.43200,0.12750,0.14550 0.00745,-0.02874,0.00000 0.24646,0.94409,0.14459 -0.43201,0.12821,0.14507 -0.04365,-0.06337,0.30622
06/13/24 12:29:06.862609 0.00000,0.00000,0.00000,0.00000,0.00000,0.00000,0.00000,0.00000,0.00000,0.00000,0.00000,0.00000 100 -0.00213,-0.00532,0.01384 0.24701,0.95142,0.14600 -0.43350,0.13650,0.15150 -0.00213,-0.00532,0.01384 0.24701,0.95142,0.14600 -0.43373,0.13614,0.15141 -0.04402,-0.05682,0.30984
06/13/24 12:29:06.901148 0.00000,0.00000,0.00000,0.00000,0.00000,0.00000,0.00000,0.00000,0.00000,0.00000,0.00000,0.00000 100 0.00213,-0.01171,-0.00639 0.23938,0.94464,0.14392 -0.42750,0.13350,0.15000 0.00213,-0.01171,-0.00639 0.23938,0.94464,0.14392 -0.42745,0.13370,0.15061 -0.04606,-0.06673,0.31185
06/13/24 12:29:06.945058 0.00000,0.00000,0.00000,0.00000,0.00000,0.00000,0.00000,0.00000,0.00000,0.00000,0.00000,0.00000 100 -0.00426,-0.00745,-0.00213 0.24628,0.94696,0.15076 -0.43050,0.13350,0.15000 -0.00426,-0.00745,-0.00213 0.24628,0.94696,0.15076 -0.43300,0.13209,0.14871 -0.03808,-0.06056,0.31004
06/13/24 12:29:06.982937 0.00000,0.00000,0.00000,0.00000,0.00000,0.00000,0.00000,0.00000,0.00000,0.00000,0.00000,0.00000 100 0.01703,0.02236,0.00319 0.24921,0.95117,0.14655 -0.43050,0.13050,0.14700 0.01703,0.02236,0.00319 0.24921,0.95117,0.14655 -0.43064,0.13020,0.14681 -0.04210,-0.05581,0.30828
06/13/24 12:29:07.026819 0.00000,0.00000,0.00000,0.00000,0.00000,0.00000,0.00000,0.00000,0.00000,0.00000,0.00000,0.00000 100 0.00319,-0.00213,-0.00639 0.24506,0.94861,0.14966 -0.43050,0.13200,0.14550 0.00319,-0.00213,-0.00639 0.24506,0.94861,0.14966 -0.43209,0.13322,0.14497 -0.03949,-0.05994,0.31151
06/13/24 12:29:07.064903 0.00000,0.00000,0.00000,0.00000,0.00000,0.00000,0.00000,0.00000,0.00000,0.00000,0.00000,0.00000 100 -0.00639,-0.01065,-0.00426 0.24249,0.94568,0.14410 -0.42750,0.13050,0.14700 -0.00639,-0.01065,-0.00426 0.24249,0.94568,0.14410 -0.42703,0.13246,0.14754 -0.04447,-0.06410,0.30982
06/13/24 12:29:07.108612 0.00000,0.00000,0.00000,0.00000,0.00000,0.00000,0.00000,0.00000,0.00000,0.00000,0.00000,0.00000 100 0.00426,-0.00319,0.00852 0.24323,0.94788,0.14935 -0.43050,0.13650,0.14550 0.00426,-0.00319,0.00852 0.24323,0.94788,0.14935 -0.43225,0.13588,0.14818 -0.04006,-0.06157,0.31254
06/13/24 12:29:07.147149 0.00000,0.00000,0.00000,0.00000,0.00000,0.00000,0.00000,0.00000,0.00000,0.00000,0.00000,0.00000 100 -0.00426,0.01916,0.01384 0.24261,0.94739,0.14496 -0.42450,0.13650,0.15300 -0.00426,0.01916,0.01384 0.24261,0.94739,0.14496 -0.42551,0.13571,0.15177 -0.04405,-0.06266,0.31124
06/13/24 12:29:07.190365 0.00000,0.00000,0.00000,0.00000,0.00000,0.00000,0.00000,0.00000,0.00000,0.00000,0.00000,0.00000 100 0.00745,-0.00532,-0.00532 0.24365,0.94690,0.14563 -0.42450,0.13350,0.14400 0.00745,-0.00532,-0.00532 0.24365,0.94690,0.14563 -0.42753,0.13276,0.14525 -0.04272,-0.06246,0.31045
06/13/24 12:29:07.228913 0.00000,0.00000,0.00000,0.00000,0.00000,0.00000,0.00000,0.00000,0.00000,0.00000,0.00000,0.00000 100 0.00745,-0.00426,0.00958 0.23883,0.94800,0.15265 -0.43350,0.13200,0.14700 0.00745,-0.00426,0.00958 0.23883,0.94800,0.15265 -0.43344,0.13308,0.14700 -0.03763,-0.06361,0.31750
06/13/24 12:29:07.272190 0.00000,0.00000,0.00000,0.00000,0.00000,0.00000,0.00000,0.00000,0.00000,0.00000,0.00000,0.00000 100 -0.00426,0.00000,-0.02023 0.24292,0.94891,0.15021 -0.43500,0.13350,0.14850 -0.00426,0.00000,-0.02023 0.24292,0.94891,0.15021 -0.43428,0.13216,0.14803 -0.03882,-0.06079,0.31367
06/13/24 12:29:07.310781 0.00000,0.00000,0.00000,0.00000,0.00000,0.00000,0.00000,0.00000,0.00000,0.00000,0.00000,0.00000 100 0.01171,0.00426,-0.00852 0.24609,0.93909,0.14606 -0.42000,0.13800,0.14550 0.01171,0.00426,-0.00852 0.24609,0.93909,0.14606 -0.42340,0.13897,0.14580 -0.03889,-0.06765,0.30494
06/13/24 12:29:07.354499 0.00000,0.00000,0.00000,0.00000,0.00000,0.00000,0.00000,0.00000,0.00000,0.00000,0.00000,0.00000 100 0.01171,0.00000,-0.00532 0.24231,0.94861,0.15094 -0.43350,0.13500,0.15150 0.01171,0.00000,-0.00532 0.24231,0.94861,0.15094 -0.43226,0.13514,0.15193 -0.03771,-0.06138,0.31452
06/13/24 12:29:07.392560 0.00000,0.00000,0.00000,0.00000,0.00000,0.00000,0.00000,0.00000,0.00000,0.00000,0.00000,0.00000 100 0.00852,-0.01703,-0.00852 0.24182,0.94672,0.15027 -0.42750,0.12900,0.15000 0.00852,-0.01703,-0.00852 0.24182,0.94672,0.15027 -0.42798,0.12955,0.15103 -0.03800,-0.06328,0.31376
06/13/24 12:29:07.436269 0.00000,0.00000,0.00000,0.00000,0.00000,0.00000,0.00000,0.00000,0.00000,0.00000,0.00000,0.00000 100 -0.00745,0.01597,0.03194 0.24432,0.94635,0.15173 -0.43050,0.13500,0.15000 -0.00745,0.01597,0.03194 0.24432,0.94635,0.15173 -0.43042,0.13444,0.14969 -0.03589,-0.06224,0.31242
06/13/24 12:29:07.479717 0.00000,0.00000,0.00000,0.00000,0.00000,0.00000,0.00000,0.00000,0.00000,0.00000,0.00000,0.00000 100 0.00426,-0.00319,-0.00426 0.23438,0.94989,0.15106 -0.43350,0.13050,0.14550 0.00426,-0.00319,-0.00426 0.23438,0.94989,0.15106 -0.43298,0.13085,0.14597 -0.04029,-0.06465,0.32177
06/13/24 12:29:07.518265 0.00000,0.00000,0.00000,0.00000,0.00000,0.00000,0.00000,0.00000,0.00000,0.00000,0.00000,0.00000 100 0.01171,0.00426,0.00213 0.24530,0.94208,0.14099 -0.43200,0.13650,0.13500 0.01171,0.00426,0.00213 0.24530,0.94208,0.14099 -0.43291,0.13532,0.13693 -0.04427,-0.06612,0.30574
06/13/24 12:29:07.561485 0.00000,0.00000,0.00000,0.00000,0.00000,0.00000,0.00000,0.00000,0.00000,0.00000,0.00000,0.00000 100 0.00532,0.00426,-0.00958 0.24084,0.94550,0.14636 -0.43650,0.13050,0.14550 0.00532,0.00426,-0.00958 0.24084,0.94550,0.14636 -0.43590,0.13003,0.14454 -0.04118,-0.06526,0.31299
06/13/24 12:29:07.600045 0.00000,0.00000,0.00000,0.00000,0.00000,0.00000,0.00000,0.00000,0.00000,0.00000,0.00000,0.00000 100 0.00426,0.00000,-0.00106 0.24542,0.94922,0.15027 -0.42750,0.13350,0.14700 0.00426,0.00000,-0.00106 0.24542,0.94922,0.15027 -0.42944,0.13368,0.14642 -0.03718,-0.05951,0.31293
06/13/24 12:29:07.643795 0.00000,0.00000,0.00000,0.00000,0.00000,0.00000,0.00000,0.00000,0.00000,0.00000,0.00000,0.00000 100 0.01384,0.01065,0.01171 0.24445,0.94409,0.14349 -0.43050,0.13500,0.14550 0.01384,0.01065,0.01171 0.24445,0.94409,0.14349 -0.42945,0.13535,0.14711 -0.04200,-0.06482,0.30876
06/13/24 12:29:07.681872 0.00000,0.00000,0.00000,0.00000,0.00000,0.00000,0.00000,0.00000,0.00000,0.00000,0.00000,0.00000 100 -0.01065,-0.00745,-0.00426 0.24872,0.94897,0.14404 -0.43050,0.12900,0.15000 -0.01065,-0.00745,-0.00426 0.24872,0.94897,0.14404 -0.43060,0.13118,0.14827 -0.04137,-0.05841,0.30798
06/13/24 12:29:07.725572 0.00000,0.00000,0.00000,0.00000,0.00000,0.00000,0.00000,0.00000,0.00000,0.00000,0.00000,0.00000 100 -0.00319,0.01597,-0.00319 0.24548,0.94263,0.15027 -0.42450,0.13200,0.13950 -0.00319,0.01597,-0.00319 0.24548,0.94263,0.15027 -0.42518,0.13246,0.14040 -0.03462,-0.06510,0.31008
06/13/24 12:29:07.763672 0.00000,0.00000,0.00000,0.00000,0.00000,0.00000,0.00000,0.00000,0.00000,0.00000,0.00000,0.00000 100 -0.00958,0.00000,-0.01171 0.24707,0.94800,0.14783 -0.42750,0.13350,0.14550 -0.00958,0.00000,-0.01171 0.24707,0.94800,0.14783 -0.42896,0.13338,0.14658 -0.03770,-0.05984,0.31027
06/13/24 12:29:07.807424 0.00000,0.00000,0.00000,0.00000,0.00000,0.00000,0.00000,0.00000,0.00000,0.00000,0.00000,0.00000 100 -0.00106,0.01703,-0.00639 0.24701,0.94513,0.14044 -0.42900,0.13350,0.14700 -0.00106,0.01703,-0.00639 0.24701,0.94513,0.14044 -0.42937,0.13370,0.14655 -0.04355,-0.06272,0.30597
06/13/24 12:29:07.845934 0.00000,0.00000,0.00000,0.00000,0.00000,0.00000,0.00000,0.00000,0.00000,0.00000,0.00000,0.00000 100 0.01171,0.01384,-0.00213 0.24103,0.94830,0.14807 -0.42450,0.12900,0.14250 0.01171,0.01384,-0.00213 0.24103,0.94830,0.14807 -0.42467,0.12925,0.14313 -0.03889,-0.06273,0.31512
06/13/24 12:29:07.889211 0.00000,0.00000,0.00000,0.00000,0.00000,0.00000,0.00000,0.00000,0.00000,0.00000,0.00000,0.00000 100 0.00319,0.00745,-0.01810 0.24597,0.94830,0.14984 -0.43650,0.13800,0.14850 0.00319,0.00745,-0.01810 0.24597,0.94830,0.14984 -0.43566,0.13754,0.14884 -0.03559,-0.05993,0.31182
06/13/24 12:29:07.927767 0.00000,0.00000,0.00000,0.00000,0.00000,0.00000,0.00000,0.00000,0.00000,0.00000,0.00000,0.00000 100 -0.01171,0.01490,-0.01065 0.24811,0.94684,0.14807 -0.42300,0.13200,0.14550 -0.01171,0.01490,-0.01065 0.24811,0.94684,0.14807 -0.42314,0.13185,0.14605 -0.03597,-0.06016,0.30885
06/13/24 12:29:07.971044 0.00000,0.00000,0.00000,0.00000,0.00000,0.00000,0.00000,0.00000,0.00000,0.00000,0.00000,0.00000 100 0.00426,-0.00426,-0.00532 0.24243,0.95123,0.15149 -0.43650,0.12900,0.14700 0.00426,-0.00426,-0.00532 0.24243,0.95123,0.15149 -0.43552,0.12861,0.14762 -0.03528,-0.05922,0.31663
06/13/24 12:29:08.009550 0.00000,0.00000,0.00000,0.00000,0.00000,0.00000,0.00000,0.00000,0.00000,0.00000,0.00000,0.00000 100 0.02023,-0.00852,-0.00639 0.24597,0.94159,0.14874 -0.43350,0.12900,0.14550 0.02023,-0.00852,-0.00639 0.24597,0.94159,0.14874 -0.43311,0.12978,0.14558 -0.03389,-0.06568,0.30841
06/13/24 12:29:08.053467 0.00000,0.00000,0.00000,0.00000,0.00000,0.00000,0.00000,0.00000,0.00000,0.00000,0.00000,0.00000 100 -0.00426,0.00852,0.00106 0.24487,0.94513,0.14728 -0.43050,0.12600,0.14550 -0.00426,0.00852,0.00106 0.24487,0.94513,0.14728 -0.43021,0.12923,0.14615 -0.03643,-0.06335,0.31029
06/13/24 12:29:08.091326 0.00000,0.00000,0.00000,0.00000,0.00000,0.00000,0.00000,0.00000,0.00000,0.00000,0.00000,0.00000 100 0.00106,0.01278,0.00639 0.24158,0.94562,0.14899 -0.43050,0.13050,0.14850 0.00106,0.01278,0.00639 0.24158,0.94562,0.14899 -0.43027,0.13016,0.14933 -0.03589,-0.06461,0.31386
06/13/24 12:29:08.135261 0.00000,0.00000,0.00000,0.00000,0.00000,0.00000,0.00000,0.00000,0.00000,0.00000,0.00000,0.00000 100 -0.00319,0.00213,0.00426 0.24091,0.95044,0.14764 -0.43200,0.13200,0.15150 -0.00319,0.00213,0.00426 0.24091,0.95044,0.14764 -0.43188,0.13243,0.14984 -0.03846,-0.06102,0.31625
06/13/24 12:29:08.173318 0.00000,0.00000,0.00000,0.00000,0.00000,0.00000,0.00000,0.00000,0.00000,0.00000,0.00000,0.00000 100 -0.00745,0.00213,0.00745 0.24536,0.94971,0.15076 -0.43200,0.13650,0.13950 -0.00745,0.00213,0.00745 0.24536,0.94971,0.15076 -0.43091,0.13662,0.14275 -0.03386,-0.05908,0.31368
06/13/24 12:29:08.217058 0.00000,0.00000,0.00000,0.00000,0.00000,0.00000,0.00000,0.00000,0.00000,0.00000,0.00000,0.00000 100 -0.00106,-0.00852,-0.00426 0.24951,0.95190,0.14691 -0.42600,0.13350,0.15450 -0.00106,-0.00852,-0.00426 0.24951,0.95190,0.14691 -0.42615,0.13473,0.15442 -0.03657,-0.05525,0.30996
06/13/24 12:29:08.255136 0.00000,0.00000,0.00000,0.00000,0.00000,0.00000,0.00000,0.00000,0.00000,0.00000,0.00000,0.00000 100 -0.01597,0.00000,0.00213 0.24500,0.94757,0.14679 -0.43050,0.13350,0.14550 -0.01597,0.00000,0.00213 0.24500,0.94757,0.14679 -0.43029,0.13239,0.14721 -0.03687,-0.06126,0.31124
06/13/24 12:29:08.298848 0.00000,0.00000,0.00000,0.00000,0.00000,0.00000,0.00000,0.00000,0.00000,0.00000,0.00000,0.00000 100 0.00213,-0.00106,0.00319 0.24225,0.94604,0.14191 -0.43800,0.13350,0.14400 0.00213,-0.00106,0.00319 0.24225,0.94604,0.14191 -0.43662,0.13392,0.14344 -0.04178,-0.06433,0.31080
06/13/24 12:29:08.337398 0.00000,0.00000,0.00000,0.00000,0.00000,0.00000,0.00000,0.00000,0.00000,0.00000,0.00000,0.00000 100 -0.01171,-0.01703,0.01171 0.24622,0.95215,0.14862 -0.43050,0.13650,0.14550 -0.01171,-0.01703,0.01171 0.24622,0.95215,0.14862 -0.43161,0.13298,0.14547 -0.03593,-0.05663,0.31315
06/13/24 12:29:08.380665 0.00000,0.00000,0.00000,0.00000,0.00000,0.00000,0.00000,0.00000,0.00000,0.00000,0.00000,0.00000 100 0.00426,0.01384,-0.01171 0.24219,0.95026,0.14453 -0.44100,0.13350,0.15150 0.00426,0.01384,-0.01171 0.24219,0.95026,0.14453 -0.43991,0.13331,0.15104 -0.04013,-0.06057,0.31369
06/13/24 12:29:08.419164 0.00000,0.00000,0.00000,0.00000,0.00000,0.00000,0.00000,0.00000,0.00000,0.00000,0.00000,0.00000 100 0.00319,0.00958,-0.00106 0.24469,0.95404,0.15247 -0.43200,0.13800,0.15150 0.00319,0.00958,-0.00106 0.24469,0.95404,0.15247 -0.43047,0.13772,0.15151 -0.03301,-0.05558,0.31669
06/13/24 12:29:08.462392 0.00000,0.00000,0.00000,0.00000,0.00000,0.00000,0.00000,0.00000,0.00000,0.00000,0.00000,0.00000 100 0.00319,0.00213,0.00106 0.24628,0.95258,0.14801 -0.43650,0.13200,0.14700 0.00319,0.00213,0.00106 0.24628,0.95258,0.14801 -0.43570,0.13261,0.14763 -0.03617,-0.05624,0.31299
06/13/24 12:29:08.500903 0.00000,0.00000,0.00000,0.00000,0.00000,0.00000,0.00000,0.00000,0.00000,0.00000,0.00000,0.00000 100 -0.00426,0.01278,0.00319 0.24548,0.94965,0.14880 -0.43050,0.13950,0.14700 -0.00426,0.01278,0.00319 0.24548,0.94965,0.14880 -0.42973,0.13981,0.14682 -0.03489,-0.05908,0.31254
06/13/24 12:29:08.544620 0.00000,0.00000,0.00000,0.00000,0.00000,0.00000,0.00000,0.00000,0.00000,0.00000,0.00000,0.00000 100 0.01171,0.00000,-0.00639 0.24609,0.94116,0.14685 -0.43050,0.13500,0.14850 0.01171,0.00000,-0.00639 0.24609,0.94116,0.14685 -0.43089,0.13525,0.14743 -0.03400,-0.06610,0.30755
06/13/24 12:29:08.588002 0.00000,0.00000,0.00000,0.00000,0.00000,0.00000,0.00000,0.00000,0.00000,0.00000,0.00000,0.00000 100 -0.00106,-0.01703,0.00639 0.24628,0.94373,0.15002 -0.43050,0.13500,0.14250 -0.00106,-0.01703,0.00639 0.24628,0.94373,0.15002 -0.43066,0.13371,0.14315 -0.03150,-0.06368,0.31000
06/13/24 12:29:08.626388 0.00000,0.00000,0.00000,0.00000,0.00000,0.00000,0.00000,0.00000,0.00000,0.00000,0.00000,0.00000 100 -0.00745,0.00639,0.00852 0.24438,0.94849,0.14545 -0.43050,0.13500,0.15000 -0.00745,0.00639,0.00852 0.24438,0.94849,0.14545 -0.42953,0.13456,0.14944 -0.03727,-0.06100,0.31207
06/13/24 12:29:08.669781 0.00000,0.00000,0.00000,0.00000,0.00000,0.00000,0.00000,0.00000,0.00000,0.00000,0.00000,0.00000 100 -0.00426,0.00958,0.01065 0.24170,0.94366,0.14917 -0.42450,0.13500,0.14400 -0.00426,0.00958,0.01065 0.24170,0.94366,0.14917 -0.42839,0.13584,0.14705 -0.03316,-0.06620,0.31319
06/13/24 12:29:08.708292 0.00000,0.00000,0.00000,0.00000,0.00000,0.00000,0.00000,0.00000,0.00000,0.00000,0.00000,0.00000 100 0.00639,-0.01810,-0.01490 0.24750,0.94849,0.14484 -0.42450,0.13200,0.14400 0.00639,-0.01810,-0.01490 0.24750,0.94849,0.14484 -0.42545,0.13044,0.14528 -0.03666,-0.05928,0.30912
06/13/24 12:29:08.751522 0.00000,0.00000,0.00000,0.00000,0.00000,0.00000,0.00000,0.00000,0.00000,0.00000,0.00000,0.00000 100 -0.02023,-0.00852,0.01490 0.24573,0.94543,0.14789 -0.42750,0.13650,0.15300 -0.02023,-0.00852,0.01490 0.24573,0.94543,0.14789 -0.42788,0.13464,0.15022 -0.03330,-0.06256,0.31016
06/13/24 12:29:08.790080 0.00000,0.00000,0.00000,0.00000,0.00000,0.00000,0.00000,0.00000,0.00000,0.00000,0.00000,0.00000 100 0.00426,0.00745,-0.01703 0.24249,0.94293,0.14819 -0.42600,0.13800,0.15300 0.00426,0.00745,-0.01703 0.24249,0.94293,0.14819 -0.42602,0.13705,0.14989 -0.03293,-0.06633,0.31154
06/13/24 12:29:08.833798 0.00000,0.00000,0.00000,0.00000,0.00000,0.00000,0.00000,0.00000,0.00000,0.00000,0.00000,0.00000 100 0.00639,0.00745,0.00745 0.24414,0.94879,0.14905 -0.42900,0.13200,0.14700 0.00639,0.00745,0.00745 0.24414,0.94879,0.14905 -0.42849,0.13229,0.14644 -0.03308,-0.06048,0.31341
06/13/24 12:29:08.871874 0.00000,0.00000,0.00000,0.00000,0.00000,0.00000,0.00000,0.00000,0.00000,0.00000,0.00000,0.00000 100 -0.00639,-0.01171,-0.00639 0.25024,0.95117,0.13983 -0.43200,0.13050,0.14550 -0.00639,-0.01171,-0.00639 0.25024,0.95117,0.13983 -0.43177,0.12952,0.14585 -0.04047,-0.05587,0.30641
06/13/24 12:29:08.915612 0.00000,0.00000,0.00000,0.00000,0.00000,0.00000,0.00000,0.00000,0.00000,0.00000,0.00000,0.00000 100 -0.01065,-0.00745,0.00319 0.24408,0.95251,0.15161 -0.43050,0.13650,0.14850 -0.01065,-0.00745,0.00319 0.24408,0.95251,0.15161 -0.43084,0.13497,0.14874 -0.03142,-0.05725,0.31634
06/13/24 12:29:08.953701 0.00000,0.00000,0.00000,0.00000,0.00000,0.00000,0.00000,0.00000,0.00000,0.00000,0.00000,0.00000 100 -0.00213,0.00426,-0.00426 0.24396,0.95081,0.15149 -0.42600,0.12900,0.15300 -0.00213,0.00426,-0.00426 0.24396,0.95081,0.15149 -0.42689,0.13097,0.15120 -0.03104,-0.05874,0.31553
06/13/24 12:29:08.997382 0.00000,0.00000,0.00000,0.00000,0.00000,0.00000,0.00000,0.00000,0.00000,0.00000,0.00000,0.00000 100 0.00852,-0.00426,0.00426 0.24573,0.94763,0.14972 -0.43650,0.13650,0.14850 0.00852,-0.00426,0.00426 0.24573,0.94763,0.14972 -0.43615,0.13651,0.14837 -0.03119,-0.06060,0.31203
06/13/24 12:29:09.035990 0.00000,0.00000,0.00000,0.00000,0.00000,0.00000,0.00000,0.00000,0.00000,0.00000,0.00000,0.00000 100 0.00852,0.00106,0.00426 0.24731,0.94763,0.15204 -0.43350,0.14250,0.14700 0.00852,0.00106,0.00426 0.24731,0.94763,0.15204 -0.43227,0.14165,0.14654 -0.02836,-0.05966,0.31185
06/13/24 12:29:09.079247 0.00000,0.00000,0.00000,0.00000,0.00000,0.00000,0.00000,0.00000,0.00000,0.00000,0.00000,0.00000 100 -0.01065,0.00426,0.00745 0.24255,0.94727,0.14703 -0.43500,0.12600,0.14550 -0.01065,0.00426,0.00745 0.24255,0.94727,0.14703 -0.43553,0.12686,0.14528 -0.03419,-0.06283,0.31353
06/13/24 12:29:09.117771 0.00000,0.00000,0.00000,0.00000,0.00000,0.00000,0.00000,0.00000,0.00000,0.00000,0.00000,0.00000 100 0.01384,0.01278,-0.00745 0.24762,0.94580,0.14490 -0.43500,0.13350,0.15150 0.01384,0.01278,-0.00745 0.24762,0.94580,0.14490 -0.43381,0.13355,0.15191 -0.03427,-0.06157,0.30826
06/13/24 12:29:09.161145 0.00000,0.00000,0.00000,0.00000,0.00000,0.00000,0.00000,0.00000,0.00000,0.00000,0.00000,0.00000 100 0.00745,0.00106,-0.00106 0.24677,0.94385,0.14929 -0.43950,0.13350,0.14850 0.00745,0.00106,-0.00106 0.24677,0.94385,0.14929 -0.43594,0.13396,0.14729 -0.02975,-0.06346,0.30989
06/13/24 12:29:09.199458 0.00000,0.00000,0.00000,0.00000,0.00000,0.00000,0.00000,0.00000,0.00000,0.00000,0.00000,0.00000 100 -0.01703,0.00213,0.00852 0.24756,0.94269,0.14606 -0.43800,0.13200,0.15150 -0.01703,0.00213,0.00852 0.24756,0.94269,0.14606 -0.43713,0.13224,0.15122 -0.03242,-0.06424,0.30753
06/13/24 12:29:09.243343 0.00000,0.00000,0.00000,0.00000,0.00000,0.00000,0.00000,0.00000,0.00000,0.00000,0.00000,0.00000 100 0.01171,-0.01703,-0.01703 0.24286,0.94763,0.14758 -0.43050,0.13200,0.14700 0.01171,-0.01703,-0.01703 0.24286,0.94763,0.14758 -0.43199,0.13231,0.14772 -0.03311,-0.06256,0.31446
06/13/24 12:29:09.281179 0.00000,0.00000,0.00000,0.00000,0.00000,0.00000,0.00000,0.00000,0.00000,0.00000,0.00000,0.00000 100 -0.00532,-0.00532,0.00106 0.24426,0.94763,0.14612 -0.43500,0.13800,0.14100 -0.00532,-0.00532,0.00106 0.24426,0.94763,0.14612 -0.43462,0.13704,0.14120 -0.03393,-0.06196,0.31299
06/13/24 12:29:09.325119 0.00000,0.00000,0.00000,0.00000,0.00000,0.00000,0.00000,0.00000,0.00000,0.00000,0.00000,0.00000 100 0.02236,0.00958,0.00000 0.24591,0.94263,0.14404 -0.42600,0.13350,0.14700 0.02236,0.00958,0.00000 0.24591,0.94263,0.14404 -0.42911,0.13484,0.14636 -0.03381,-0.06533,0.30826
06/13/24 12:29:09.363140 0.00000,0.00000,0.00000,0.00000,0.00000,0.00000,0.00000,0.00000,0.00000,0.00000,0.00000,0.00000 100 -0.00106,-0.01597,0.00213 0.24463,0.94720,0.14978 -0.43050,0.13350,0.14850 -0.00106,-0.01597,0.00213 0.24463,0.94720,0.14978 -0.43049,0.13365,0.14784 -0.02996,-0.06180,0.31362
06/13/24 12:29:09.406845 0.00000,0.00000,0.00000,0.00000,0.00000,0.00000,0.00000,0.00000,0.00000,0.00000,0.00000,0.00000 100 0.00319,0.00532,-0.00532 0.24414,0.94562,0.14685 -0.43500,0.13050,0.14100 0.00319,0.00532,-0.00532 0.24414,0.94562,0.14685 -0.43191,0.13132,0.14251 -0.03221,-0.06355,0.31206
06/13/24 12:29:09.450066 0.00000,0.00000,0.00000,0.00000,0.00000,0.00000,0.00000,0.00000,0.00000,0.00000,0.00000,0.00000 100 0.00532,-0.00426,-0.00532 0.24280,0.94720,0.14954 -0.42750,0.13350,0.14700 0.00532,-0.00426,-0.00532 0.24280,0.94720,0.14954 -0.42793,0.13360,0.14592 -0.03038,-0.06272,0.31480
06/13/24 12:29:09.488549 0.00000,0.00000,0.00000,0.00000,0.00000,0.00000,0.00000,0.00000,0.00000,0.00000,0.00000,0.00000 100 -0.00958,-0.02555,0.00106 0.24860,0.94537,0.14764 -0.42450,0.13050,0.15600 -0.00958,-0.02555,0.00106 0.24860,0.94537,0.14764 -0.42468,0.13237,0.15550 -0.03003,-0.06133,0.30876
06/13/24 12:29:09.532264 0.00000,0.00000,0.00000,0.00000,0.00000,0.00000,0.00000,0.00000,0.00000,0.00000,0.00000,0.00000 100 -0.00639,-0.00426,0.00745 0.24194,0.94904,0.15295 -0.43350,0.13500,0.14250 -0.00639,-0.00426,0.00745 0.24194,0.94904,0.15295 -0.43372,0.13550,0.14272 -0.02785,-0.06152,0.31792
06/13/24 12:29:09.570293 0.00000,0.00000,0.00000,0.00000,0.00000,0.00000,0.00000,0.00000,0.00000,0.00000,0.00000,0.00000 100 -0.00639,0.00000,0.00106 0.24628,0.95386,0.15424 -0.43650,0.12900,0.14850 -0.00639,0.00000,0.00106 0.24628,0.95386,0.15424 -0.43559,0.12926,0.14895 -0.02660,-0.05506,0.31728
06/13/24 12:29:09.614029 0.00000,0.00000,0.00000,0.00000,0.00000,0.00000,0.00000,0.00000,0.00000,0.00000,0.00000,0.00000 100 -0.01597,0.02236,-0.00745 0.24329,0.95172,0.14899 -0.42750,0.13650,0.14250 -0.01597,0.02236,-0.00745 0.24329,0.95172,0.14899 -0.42744,0.13600,0.14337 -0.03184,-0.05878,0.31661
06/13/24 12:29:09.652119 0.00000,0.00000,0.00000,0.00000,0.00000,0.00000,0.00000,0.00000,0.00000,0.00000,0.00000,0.00000 100 0.00106,-0.00639,0.00532 0.24658,0.95001,0.14703 -0.43200,0.13950,0.15300 0.00106,-0.00639,0.00532 0.24658,0.95001,0.14703 -0.43219,0.13895,0.15217 -0.03224,-0.05858,0.31246
06/13/24 12:29:09.695985 0.00000,0.00000,0.00000,0.00000,0.00000,0.00000,0.00000,0.00000,0.00000,0.00000,0.00000,0.00000 100 0.00000,0.01065,-0.00852 0.24115,0.94690,0.14935 -0.43050,0.13950,0.15150 0.00000,0.01065,-0.00852 0.24115,0.94690,0.14935 -0.43063,0.13809,0.15141 -0.03072,-0.06388,0.31593
06/13/24 12:29:09.734351 0.00000,0.00000,0.00000,0.00000,0.00000,0.00000,0.00000,0.00000,0.00000,0.00000,0.00000,0.00000 100 0.00958,-0.00639,0.01065 0.24377,0.94867,0.15155 -0.43050,0.13650,0.14250 0.00958,-0.00639,0.01065 0.24377,0.94867,0.15155 -0.43084,0.13611,0.14334 -0.02832,-0.06086,0.31557
06/13/24 12:29:09.777767 0.00000,0.00000,0.00000,0.00000,0.00000,0.00000,0.00000,0.00000,0.00000,0.00000,0.00000,0.00000 100 -0.01171,0.00319,-0.00106 0.24811,0.94629,0.15015 -0.43050,0.13500,0.15150 -0.01171,0.00319,-0.00106 0.24811,0.94629,0.15015 -0.42926,0.13715,0.15230 -0.02777,-0.06064,0.31048
06/13/24 12:29:09.816308 0.00000,0.00000,0.00000,0.00000,0.00000,0.00000,0.00000,0.00000,0.00000,0.00000,0.00000,0.00000 100 -0.00319,0.02662,-0.01810 0.24664,0.95068,0.14386 -0.43500,0.13050,0.14850 -0.00319,0.02662,-0.01810 0.24664,0.95068,0.14386 -0.43379,0.13138,0.14859 -0.03505,-0.05814,0.31145
06/13/24 12:29:09.859585 0.00000,0.00000,0.00000,0.00000,0.00000,0.00000,0.00000,0.00000,0.00000,0.00000,0.00000,0.00000 100 0.00532,-0.00213,-0.00213 0.25049,0.94836,0.14691 -0.43200,0.13650,0.14700 0.00532,-0.00213,-0.00213 0.25049,0.94836,0.14691 -0.43116,0.13391,0.14810 -0.03057,-0.05781,0.30832
06/13/24 12:29:09.898109 0.00000,0.00000,0.00000,0.00000,0.00000,0.00000,0.00000,0.00000,0.00000,0.00000,0.00000,0.00000 100 -0.01171,-0.01384,0.00745 0.24591,0.94257,0.14417 -0.42750,0.13500,0.15000 -0.01171,-0.01384,0.00745 0.24591,0.94257,0.14417 -0.42692,0.13435,0.14745 -0.03309,-0.06532,0.30817
06/13/24 12:29:09.941838 0.00000,0.00000,0.00000,0.00000,0.00000,0.00000,0.00000,0.00000,0.00000,0.00000,0.00000,0.00000 100 -0.00639,0.02874,0.00532 0.24359,0.95099,0.14532 -0.42600,0.13200,0.14850 -0.00639,0.02874,0.00532 0.24359,0.95099,0.14532 -0.42638,0.13211,0.14902 -0.03474,-0.05939,0.31444
06/13/24 12:29:09.979873 0.00000,0.00000,0.00000,0.00000,0.00000,0.00000,0.00000,0.00000,0.00000,0.00000,0.00000,0.00000 100 -0.01703,-0.02129,0.00106 0.24542,0.94965,0.14227 -0.43200,0.14250,0.15000 -0.01703,-0.02129,0.00106 0.24542,0.94965,0.14227 -0.43027,0.14138,0.15049 -0.03656,-0.05971,0.31117
06/13/24 12:29:10.023603 0.00000,0.00000,0.00000,0.00000,0.00000,0.00000,0.00000,0.00000,0.00000,0.00000,0.00000,0.00000 100 0.01278,-0.01597,0.01065 0.24890,0.94818,0.14551 -0.42600,0.13500,0.15450 0.01278,-0.01597,0.01065 0.24890,0.94818,0.14551 -0.42589,0.13514,0.15376 -0.03193,-0.05887,0.30890
06/13/24 12:29:10.061703 0.00000,0.00000,0.00000,0.00000,0.00000,0.00000,0.00000,0.00000,0.00000,0.00000,0.00000,0.00000 100 -0.01065,0.01278,-0.00213 0.24750,0.94824,0.14703 -0.43050,0.13500,0.14850 -0.01065,0.01278,-0.00213 0.24750,0.94824,0.14703 -0.42851,0.13608,0.14787 -0.03099,-0.05949,0.31068
06/13/24 12:29:10.105448 0.00000,0.00000,0.00000,0.00000,0.00000,0.00000,0.00000,0.00000,0.00000,0.00000,0.00000,0.00000 100 0.00106,-0.00319,0.00639 0.24927,0.94666,0.14691 -0.42600,0.13500,0.14850 0.00106,-0.00319,0.00639 0.24927,0.94666,0.14691 -0.42700,0.13406,0.14823 -0.03022,-0.05986,0.30838
06/13/24 12:29:10.143468 0.00000,0.00000,0.00000,0.00000,0.00000,0.00000,0.00000,0.00000,0.00000,0.00000,0.00000,0.00000 100 0.00958,0.00319,0.00745 0.24359,0.94507,0.15192 -0.42900,0.12900,0.14700 0.00958,0.00319,0.00745 0.24359,0.94507,0.15192 -0.43054,0.12892,0.14748 -0.02671,-0.06395,0.31410
06/13/24 12:29:10.187144 0.00000,0.00000,0.00000,0.00000,0.00000,0.00000,0.00000,0.00000,0.00000,0.00000,0.00000,0.00000 100 0.00213,-0.01278,-0.00426 0.24603,0.94959,0.14691 -0.43200,0.13050,0.14550 0.00213,-0.01278,-0.00426 0.24603,0.94959,0.14691 -0.43124,0.13147,0.14552 -0.03178,-0.05918,0.31254
06/13/24 12:29:10.225671 0.00000,0.00000,0.00000,0.00000,0.00000,0.00000,0.00000,0.00000,0.00000,0.00000,0.00000,0.00000 100 0.00000,0.00958,-0.00532 0.24524,0.94879,0.14764 -0.43350,0.13200,0.14250 0.00000,0.00958,-0.00532 0.24524,0.94879,0.14764 -0.43336,0.13196,0.14281 -0.03089,-0.06023,0.31309
06/13/24 12:29:10.268871 0.00000,0.00000,0.00000,0.00000,0.00000,0.00000,0.00000,0.00000,0.00000,0.00000,0.00000,0.00000 100 -0.01171,0.00852,-0.00213 0.24622,0.94568,0.15063 -0.43500,0.13350,0.14550 -0.01171,0.00852,-0.00213 0.24622,0.94568,0.15063 -0.43458,0.13370,0.14620 -0.02706,-0.06217,0.31203
06/13/24 12:29:10.307361 0.00000,0.00000,0.00000,0.00000,0.00000,0.00000,0.00000,0.00000,0.00000,0.00000,0.00000,0.00000 100 -0.00958,0.00532,0.01065 0.25079,0.94855,0.14337 -0.43350,0.13950,0.14850 -0.00958,0.00532,0.01065 0.25079,0.94855,0.14337 -0.43295,0.13847,0.14829 -0.03324,-0.05779,0.30713
06/13/24 12:29:10.350771 0.00000,0.00000,0.00000,0.00000,0.00000,0.00000,0.00000,0.00000,0.00000,0.00000,0.00000,0.00000 100 0.00000,-0.01065,-0.00213 0.24805,0.94971,0.14374 -0.43350,0.13800,0.15000 0.00000,-0.01065,-0.00213 0.24805,0.94971,0.14374 -0.43201,0.13788,0.14889 -0.03387,-0.05832,0.31020
06/13/24 12:29:10.394501 0.00000,0.00000,0.00000,0.00000,0.00000,0.00000,0.00000,0.00000,0.00000,0.00000,0.00000,0.00000 100 0.01810,0.00426,-0.00319 0.24298,0.94226,0.15039 -0.43200,0.13950,0.14700 0.01810,0.00426,-0.00319 0.24298,0.94226,0.15039 -0.43201,0.13861,0.14631 -0.02677,-0.06687,0.31315
06/13/24 12:29:10.433040 0.00000,0.00000,0.00000,0.00000,0.00000,0.00000,0.00000,0.00000,0.00000,0.00000,0.00000,0.00000 100 -0.02449,0.00106,-0.02449 0.25049,0.94763,0.14886 -0.42450,0.12750,0.13950 -0.02449,0.00106,-0.02449 0.25049,0.94763,0.14886 -0.42454,0.12875,0.13992 -0.02753,-0.05838,0.30904
06/13/24 12:29:10.476262 0.00000,0.00000,0.00000,0.00000,0.00000,0.00000,0.00000,0.00000,0.00000,0.00000,0.00000,0.00000 100 -0.00106,0.02768,0.01384 0.24811,0.94757,0.14832 -0.43350,0.13050,0.14850 -0.00106,0.02768,0.01384 0.24811,0.94757,0.14832 -0.43151,0.12931,0.14636 -0.02832,-0.05975,0.31076
06/13/24 12:29:10.514833 0.00000,0.00000,0.00000,0.00000,0.00000,0.00000,0.00000,0.00000,0.00000,0.00000,0.00000,0.00000 100 -0.01278,-0.00213,0.00745 0.24200,0.94794,0.14911 -0.43500,0.13200,0.15150 -0.01278,-0.00213,0.00745 0.24200,0.94794,0.14911 -0.43376,0.13159,0.15075 -0.02937,-0.06266,0.31609
06/13/24 12:29:10.558083 0.00000,0.00000,0.00000,0.00000,0.00000,0.00000,0.00000,0.00000,0.00000,0.00000,0.00000,0.00000 100 -0.00639,-0.00319,0.01171 0.24390,0.94434,0.14752 -0.43800,0.13200,0.14850 -0.00639,-0.00319,0.01171 0.24390,0.94434,0.14752 -0.43636,0.13258,0.14780 -0.02941,-0.06480,0.31234
06/13/24 12:29:10.596580 0.00000,0.00000,0.00000,0.00000,0.00000,0.00000,0.00000,0.00000,0.00000,0.00000,0.00000,0.00000 100 0.00852,-0.00532,0.00319 0.24744,0.94641,0.14917 -0.43200,0.13050,0.14550 0.00852,-0.00532,0.00319 0.24744,0.94641,0.14917 -0.43070,0.13098,0.14504 -0.02721,-0.06115,0.31143
06/13/24 12:29:10.640296 0.00000,0.00000,0.00000,0.00000,0.00000,0.00000,0.00000,0.00000,0.00000,0.00000,0.00000,0.00000 100 -0.01065,0.00213,-0.00958 0.24573,0.94391,0.14856 -0.43350,0.13650,0.14700 -0.01065,0.00213,-0.00958 0.24573,0.94391,0.14856 -0.43410,0.13654,0.14671 -0.02752,-0.06414,0.31116
06/13/24 12:29:10.678362 0.00000,0.00000,0.00000,0.00000,0.00000,0.00000,0.00000,0.00000,0.00000,0.00000,0.00000,0.00000 100 -0.00426,0.01597,-0.00426 0.24536,0.94690,0.14966 -0.42450,0.12750,0.15000 -0.00426,0.01597,-0.00426 0.24536,0.94690,0.14966 -0.42425,0.12803,0.14943 -0.02739,-0.06172,0.31320
06/13/24 12:29:10.722033 0.00000,0.00000,0.00000,0.00000,0.00000,0.00000,0.00000,0.00000,0.00000,0.00000,0.00000,0.00000 100 0.01490,-0.00319,0.01703 0.24902,0.94904,0.14545 -0.43050,0.13500,0.14550 0.01490,-0.00319,0.01703 0.24902,0.94904,0.14545 -0.43076,0.13518,0.14512 -0.03042,-0.05829,0.30998
06/13/24 12:29:10.760051 0.00000,0.00000,0.00000,0.00000,0.00000,0.00000,0.00000,0.00000,0.00000,0.00000,0.00000,0.00000 100 0.00000,-0.00213,0.00426 0.24225,0.94794,0.14935 -0.42900,0.13650,0.14850 0.00000,-0.00213,0.00426 0.24225,0.94794,0.14935 -0.42948,0.13536,0.14846 -0.02819,-0.06259,0.31631
06/13/24 12:29:10.803919 0.00000,0.00000,0.00000,0.00000,0.00000,0.00000,0.00000,0.00000,0.00000,0.00000,0.00000,0.00000 100 0.00000,0.00852,0.00532 0.24640,0.94641,0.14435 -0.43200,0.13350,0.15000 0.00000,0.00852,0.00532 0.24640,0.94641,0.14435 -0.43126,0.13265,0.15008 -0.03104,-0.06190,0.31025
06/13/24 12:29:10.841817 0.00000,0.00000,0.00000,0.00000,0.00000,0.00000,0.00000,0.00000,0.00000,0.00000,0.00000,0.00000 100 0.00000,-0.00639,0.01597 0.24390,0.94421,0.14709 -0.43200,0.13200,0.15150 0.00000,-0.00639,0.01597 0.24390,0.94421,0.14709 -0.43177,0.13197,0.15053 -0.02823,-0.06492,0.31223
06/13/24 12:29:10.885673 0.00000,0.00000,0.00000,0.00000,0.00000,0.00000,0.00000,0.00000,0.00000,0.00000,0.00000,0.00000 100 -0.00639,0.00532,0.01384 0.24573,0.95001,0.14850 -0.43500,0.13650,0.14550 -0.00639,0.00532,0.01384 0.24573,0.95001,0.14850 -0.43339,0.13594,0.14592 -0.02791,-0.05895,0.31400
06/13/24 12:29:10.923999 0.00000,0.00000,0.00000,0.00000,0.00000,0.00000,0.00000,0.00000,0.00000,0.00000,0.00000,0.00000 100 -0.00319,0.01490,-0.02129 0.24854,0.94336,0.14832 -0.42750,0.13050,0.15450 -0.00319,0.01490,-0.02129 0.24854,0.94336,0.14832 -0.42729,0.13085,0.15387 -0.02524,-0.06308,0.30861
06/13/24 12:29:10.967414 0.00000,0.00000,0.00000,0.00000,0.00000,0.00000,0.00000,0.00000,0.00000,0.00000,0.00000,0.00000 100 -0.00532,-0.02342,0.00958 0.24561,0.94861,0.14154 -0.43500,0.13200,0.14700 -0.00532,-0.02342,0.00958 0.24561,0.94861,0.14154 -0.43254,0.13332,0.14706 -0.03365,-0.06073,0.31123
06/13/24 12:29:11.005991 0.00000,0.00000,0.00000,0.00000,0.00000,0.00000,0.00000,0.00000,0.00000,0.00000,0.00000,0.00000 100 0.00745,-0.01916,0.01065 0.24347,0.94647,0.14935 -0.42600,0.13500,0.14700 0.00745,-0.01916,0.01065 0.24347,0.94647,0.14935 -0.42610,0.13377,0.14682 -0.02630,-0.06320,0.31480
06/13/24 12:29:11.049241 0.00000,0.00000,0.00000,0.00000,0.00000,0.00000,0.00000,0.00000,0.00000,0.00000,0.00000,0.00000 100 -0.00213,0.01065,0.00213 0.24799,0.94586,0.14673 -0.43350,0.13350,0.14400 -0.00213,0.01065,0.00213 0.24799,0.94586,0.14673 -0.43434,0.13293,0.14479 -0.02725,-0.06144,0.30990
06/13/24 12:29:11.087784 0.00000,0.00000,0.00000,0.00000,0.00000,0.00000,0.00000,0.00000,0.00000,0.00000,0.00000,0.00000 100 -0.00745,-0.01171,-0.00426 0.24237,0.95349,0.14349 -0.43350,0.13800,0.14250 -0.00745,-0.01171,-0.00426 0.24237,0.95349,0.14349 -0.43204,0.13655,0.14297 -0.03365,-0.05826,0.31697
06/13/24 12:29:11.131488 0.00000,0.00000,0.00000,0.00000,0.00000,0.00000,0.00000,0.00000,0.00000,0.00000,0.00000,0.00000 100 -0.00213,-0.01278,-0.00639 0.24445,0.94446,0.14648 -0.42600,0.13200,0.14550 -0.00213,-0.01278,-0.00639 0.24445,0.94446,0.14648 -0.42606,0.13222,0.14608 -0.02813,-0.06456,0.31204
06/13/24 12:29:11.169536 0.00000,0.00000,0.00000,0.00000,0.00000,0.00000,0.00000,0.00000,0.00000,0.00000,0.00000,0.00000 100 -0.00426,0.01065,-0.00639 0.24170,0.95410,0.14789 -0.43500,0.13650,0.14250 -0.00426,0.01065,-0.00639 0.24170,0.95410,0.14789 -0.43383,0.13757,0.14442 -0.02960,-0.05787,0.31954
06/13/24 12:29:11.213229 0.00000,0.00000,0.00000,0.00000,0.00000,0.00000,0.00000,0.00000,0.00000,0.00000,0.00000,0.00000 100 0.00852,-0.01278,0.02129 0.24792,0.94751,0.14734 -0.43200,0.13650,0.14550 0.00852,-0.01278,0.02129 0.24792,0.94751,0.14734 -0.43288,0.13649,0.14581 -0.02683,-0.06014,0.31129
06/13/24 12:29:11.256500 0.00000,0.00000,0.00000,0.00000,0.00000,0.00000,0.00000,0.00000,0.00000,0.00000,0.00000,0.00000 100 0.00532,-0.00958,0.01065 0.24243,0.94385,0.14996 -0.42600,0.13350,0.14400 0.00532,-0.00958,0.01065 0.24243,0.94385,0.14996 -0.42581,0.13363,0.14407 -0.02494,-0.06607,0.31505
06/13/24 12:29:11.295114 0.00000,0.00000,0.00000,0.00000,0.00000,0.00000,0.00000,0.00000,0.00000,0.00000,0.00000,0.00000 100 -0.00213,-0.01171,-0.00319 0.24615,0.94885,0.14795 -0.43350,0.13200,0.15000 -0.00213,-0.01171,-0.00319 0.24615,0.94885,0.14795 -0.43332,0.13250,0.14968 -0.02686,-0.05991,0.31355
06/13/24 12:29:11.333646 0.00000,0.00000,0.00000,0.00000,0.00000,0.00000,0.00000,0.00000,0.00000,0.00000,0.00000,0.00000 100 0.00852,0.00532,-0.00639 0.24048,0.94012,0.14764 -0.43350,0.13950,0.14550 0.00852,0.00532,-0.00639 0.24048,0.94012,0.14764 -0.43299,0.13890,0.14527 -0.02665,-0.07032,0.31378
06/13/24 12:29:11.376924 0.00000,0.00000,0.00000,0.00000,0.00000,0.00000,0.00000,0.00000,0.00000,0.00000,0.00000,0.00000 100 0.01278,-0.00639,0.01278 0.25024,0.94653,0.14771 -0.43350,0.13650,0.15150 0.01278,-0.00639,0.01278 0.25024,0.94653,0.14771 -0.43269,0.13620,0.15078 -0.02534,-0.05979,0.30939
06/13/24 12:29:11.420876 0.00000,0.00000,0.00000,0.00000,0.00000,0.00000,0.00000,0.00000,0.00000,0.00000,0.00000,0.00000 100 0.00106,-0.01278,0.00745 0.24780,0.94098,0.14966 -0.43350,0.13500,0.14550 0.00106,-0.01278,0.00745 0.24780,0.94098,0.14966 -0.43331,0.13371,0.14621 -0.02272,-0.06566,0.30941
06/13/24 12:29:11.458949 0.00000,0.00000,0.00000,0.00000,0.00000,0.00000,0.00000,0.00000,0.00000,0.00000,0.00000,0.00000 100 -0.00639,-0.00106,0.01597 0.24670,0.94739,0.14966 -0.43050,0.13350,0.14850 -0.00639,-0.00106,0.01597 0.24670,0.94739,0.14966 -0.42897,0.13374,0.14927 -0.02470,-0.06095,0.31366
06/13/24 12:29:11.502669 0.00000,0.00000,0.00000,0.00000,0.00000,0.00000,0.00000,0.00000,0.00000,0.00000,0.00000,0.00000 100 0.00106,0.01916,0.00106 0.24744,0.94519,0.14801 -0.43050,0.12900,0.14550 0.00106,0.01916,0.00106 0.24744,0.94519,0.14801 -0.43054,0.13108,0.14519 -0.02520,-0.06253,0.31149
06/13/24 12:29:11.540700 0.00000,0.00000,0.00000,0.00000,0.00000,0.00000,0.00000,0.00000,0.00000,0.00000,0.00000,0.00000 100 0.00426,-0.01065,-0.00426 0.24554,0.95099,0.15088 -0.43050,0.13650,0.14550 0.00426,-0.01065,-0.00426 0.24554,0.95099,0.15088 -0.43107,0.13592,0.14550 -0.02431,-0.05849,0.31687
06/13/24 12:29:11.584421 0.00000,0.00000,0.00000,0.00000,0.00000,0.00000,0.00000,0.00000,0.00000,0.00000,0.00000,0.00000 100 0.00000,-0.01065,-0.00745 0.24548,0.94611,0.14844 -0.43500,0.13050,0.15000 0.00000,-0.01065,-0.00745 0.24548,0.94611,0.14844 -0.43501,0.13255,0.14979 -0.02528,-0.06284,0.31386
06/13/24 12:29:11.622955 0.00000,0.00000,0.00000,0.00000,0.00000,0.00000,0.00000,0.00000,0.00000,0.00000,0.00000,0.00000 100 0.02023,0.00000,-0.01916 0.24451,0.94598,0.14661 -0.42900,0.13350,0.14550 0.02023,0.00000,-0.01916 0.24451,0.94598,0.14661 -0.42982,0.13248,0.14571 -0.02689,-0.06358,0.31393
06/13/24 12:29:11.666190 0.00000,0.00000,0.00000,0.00000,0.00000,0.00000,0.00000,0.00000,0.00000,0.00000,0.00000,0.00000 100 0.01278,0.00319,-0.00106 0.24829,0.94617,0.14825 -0.43350,0.13650,0.15000 0.01278,0.00319,-0.00106 0.24829,0.94617,0.14825 -0.43363,0.13647,0.14996 -0.02434,-0.06128,0.31156
06/13/24 12:29:11.704772 0.00000,0.00000,0.00000,0.00000,0.00000,0.00000,0.00000,0.00000,0.00000,0.00000,0.00000,0.00000 100 0.01065,-0.00106,0.00532 0.24615,0.95245,0.14948 -0.43350,0.14100,0.14400 0.01065,-0.00106,0.00532 0.24615,0.95245,0.14948 -0.43349,0.13937,0.14373 -0.02548,-0.05715,0.31700
06/13/24 12:29:11.748085 0.00000,0.00000,0.00000,0.00000,0.00000,0.00000,0.00000,0.00000,0.00000,0.00000,0.00000,0.00000 100 0.02449,0.00213,0.00426 0.24548,0.94708,0.14697 -0.43050,0.13500,0.14700 0.02449,0.00213,0.00426 0.24548,0.94708,0.14697 -0.43047,0.13473,0.14732 -0.02641,-0.06223,0.31419
06/13/24 12:29:11.786633 0.00000,0.00000,0.00000,0.00000,0.00000,0.00000,0.00000,0.00000,0.00000,0.00000,0.00000,0.00000 100 0.01171,-0.02449,0.01278 0.24353,0.95148,0.14667 -0.43050,0.13200,0.15000 0.01171,-0.02449,0.01278 0.24353,0.95148,0.14667 -0.43078,0.13204,0.14930 -0.02811,-0.05962,0.31784
06/13/24 12:29:11.830336 0.00000,0.00000,0.00000,0.00000,0.00000,0.00000,0.00000,0.00000,0.00000,0.00000,0.00000,0.00000 100 0.00000,-0.00958,0.00745 0.24475,0.94800,0.14691 -0.43050,0.13650,0.15000 0.00000,-0.00958,0.00745 0.24475,0.94800,0.14691 -0.43047,0.13625,0.15013 -0.02672,-0.06189,0.31530
06/13/24 12:29:11.868393 0.00000,0.00000,0.00000,0.00000,0.00000,0.00000,0.00000,0.00000,0.00000,0.00000,0.00000,0.00000 100 -0.00532,-0.00106,-0.00852 0.24567,0.95093,0.15289 -0.43200,0.13200,0.15300 -0.00532,-0.00106,-0.00852 0.24567,0.95093,0.15289 -0.43136,0.13221,0.15234 -0.02159,-0.05853,0.31805
06/13/24 12:29:11.912119 0.00000,0.00000,0.00000,0.00000,0.00000,0.00000,0.00000,0.00000,0.00000,0.00000,0.00000,0.00000 100 -0.00532,-0.00426,-0.00106 0.24408,0.94788,0.14771 -0.42750,0.13200,0.14400 -0.00532,-0.00426,-0.00106 0.24408,0.94788,0.14771 -0.42782,0.13270,0.14405 -0.02577,-0.06227,0.31601
06/13/24 12:29:11.950167 0.00000,0.00000,0.00000,0.00000,0.00000,0.00000,0.00000,0.00000,0.00000,0.00000,0.00000,0.00000 100 0.01065,0.01171,0.00106 0.24493,0.94580,0.14594 -0.42900,0.13050,0.15150 0.01065,0.01171,0.00106 0.24493,0.94580,0.14594 -0.42893,0.13061,0.15067 -0.02646,-0.06368,0.31374
06/13/24 12:29:11.994080 0.00000,0.00000,0.00000,0.00000,0.00000,0.00000,0.00000,0.00000,0.00000,0.00000,0.00000,0.00000 100 -0.00958,0.00213,-0.01171 0.24799,0.94745,0.14667 -0.42750,0.13350,0.14100 -0.00958,0.00213,-0.01171 0.24799,0.94745,0.14667 -0.42802,0.13516,0.14302 -0.02536,-0.06054,0.31216
06/13/24 12:29:12.032015 0.00000,0.00000,0.00000,0.00000,0.00000,0.00000,0.00000,0.00000,0.00000,0.00000,0.00000,0.00000 100 0.00106,0.00319,0.00958 0.24750,0.94629,0.14722 -0.42450,0.13500,0.14100 0.00106,0.00319,0.00958 0.24750,0.94629,0.14722 -0.42602,0.13517,0.14130 -0.02468,-0.06180,0.31235
06/13/24 12:29:12.075902 0.00000,0.00000,0.00000,0.00000,0.00000,0.00000,0.00000,0.00000,0.00000,0.00000,0.00000,0.00000 100 0.00319,-0.00426,0.00852 0.24365,0.94885,0.14880 -0.43200,0.12900,0.15600 0.00319,-0.00426,0.00852 0.24365,0.94885,0.14880 -0.43183,0.13109,0.15461 -0.02483,-0.06157,0.31712
06/13/24 12:29:12.114453 0.00000,0.00000,0.00000,0.00000,0.00000,0.00000,0.00000,0.00000,0.00000,0.00000,0.00000,0.00000 100 0.00426,-0.00426,-0.00958 0.24805,0.94800,0.15015 -0.43050,0.13500,0.14850 0.00426,-0.00426,-0.00958 0.24805,0.94800,0.15015 -0.42888,0.13429,0.14981 -0.02219,-0.05979,0.31351
06/13/24 12:29:12.157728 0.00000,0.00000,0.00000,0.00000,0.00000,0.00000,0.00000,0.00000,0.00000,0.00000,0.00000,0.00000 100 -0.00852,-0.01065,-0.00958 0.24561,0.94794,0.14355 -0.42750,0.13200,0.14400 -0.00852,-0.01065,-0.00958 0.24561,0.94794,0.14355 -0.43214,0.13203,0.14250 -0.02887,-0.06157,0.31311
06/13/24 12:29:12.196248 0.00000,0.00000,0.00000,0.00000,0.00000,0.00000,0.00000,0.00000,0.00000,0.00000,0.00000,0.00000 100 -0.01278,-0.00106,0.01171 0.24896,0.95282,0.15186 -0.43500,0.13350,0.15150 -0.01278,-0.00106,0.01171 0.24896,0.95282,0.15186 -0.43520,0.13464,0.14995 -0.02151,-0.05504,0.31544
06/13/24 12:29:12.239486 0.00000,0.00000,0.00000,0.00000,0.00000,0.00000,0.00000,0.00000,0.00000,0.00000,0.00000,0.00000 100 0.00958,0.00213,0.01065 0.24670,0.94720,0.14911 -0.43050,0.13200,0.14100 0.00958,0.00213,0.01065 0.24670,0.94720,0.14911 -0.42946,0.13241,0.14188 -0.02334,-0.06114,0.31351
06/13/24 12:29:12.278066 0.00000,0.00000,0.00000,0.00000,0.00000,0.00000,0.00000,0.00000,0.00000,0.00000,0.00000,0.00000 100 0.00426,-0.02555,0.01597 0.24133,0.94867,0.14679 -0.42900,0.13650,0.14550 0.00426,-0.02555,0.01597 0.24133,0.94867,0.14679 -0.43029,0.13637,0.14391 -0.02729,-0.06297,0.31780
06/13/24 12:29:12.321786 0.00000,0.00000,0.00000,0.00000,0.00000,0.00000,0.00000,0.00000,0.00000,0.00000,0.00000,0.00000 100 -0.00106,-0.00532,-0.00213 0.24738,0.95087,0.14709 -0.42600,0.13650,0.15000 -0.00106,-0.00532,-0.00213 0.24738,0.95087,0.14709 -0.42658,0.13670,0.15012 -0.02550,-0.05783,0.31408
06/13/24 12:29:12.365015 0.00000,0.00000,0.00000,0.00000,0.00000,0.00000,0.00000,0.00000,0.00000,0.00000,0.00000,0.00000 100 -0.02449,0.01278,-0.00639 0.24286,0.94800,0.14709 -0.43050,0.13950,0.15150 -0.02449,0.01278,-0.00639 0.24286,0.94800,0.14709 -0.42992,0.13847,0.15125 -0.02613,-0.06266,0.31627
06/13/24 12:29:12.403514 0.00000,0.00000,0.00000,0.00000,0.00000,0.00000,0.00000,0.00000,0.00000,0.00000,0.00000,0.00000 100 0.00958,-0.01490,0.00213 0.24542,0.94586,0.14996 -0.42600,0.13950,0.15450 0.00958,-0.01490,0.00213 0.24542,0.94586,0.14996 -0.42565,0.13919,0.15385 -0.02214,-0.06291,0.31423
06/13/24 12:29:12.446983 0.00000,0.00000,0.00000,0.00000,0.00000,0.00000,0.00000,0.00000,0.00000,0.00000,0.00000,0.00000 100 0.00532,-0.01065,-0.00852 0.24237,0.94733,0.14972 -0.43350,0.13800,0.15300 0.00532,-0.01065,-0.00852 0.24237,0.94733,0.14972 -0.43050,0.13950,0.15024 -0.02349,-0.06330,0.31721
06/13/24 12:29:12.485360 0.00000,0.00000,0.00000,0.00000,0.00000,0.00000,0.00000,0.00000,0.00000,0.00000,0.00000,0.00000 100 -0.00745,0.00000,0.01810 0.24817,0.94336,0.14740 -0.43200,0.13200,0.14550 -0.00745,0.00000,0.01810 0.24817,0.94336,0.14740 -0.43130,0.13203,0.14603 -0.02310,-0.06370,0.30991
06/13/24 12:29:12.529226 0.00000,0.00000,0.00000,0.00000,0.00000,0.00000,0.00000,0.00000,0.00000,0.00000,0.00000,0.00000 100 0.00000,0.01490,-0.01065 0.24536,0.94946,0.14532 -0.43050,0.13350,0.14850 0.00000,0.01490,-0.01065 0.24536,0.94946,0.14532 -0.43294,0.13358,0.14683 -0.02705,-0.06018,0.31433
06/13/24 12:29:12.567086 0.00000,0.00000,0.00000,0.00000,0.00000,0.00000,0.00000,0.00000,0.00000,0.00000,0.00000,0.00000 100 -0.01916,0.01065,-0.00639 0.24835,0.94678,0.14380 -0.43200,0.13200,0.14550 -0.01916,0.01065,-0.00639 0.24835,0.94678,0.14380 -0.43153,0.13143,0.14644 -0.02715,-0.06086,0.30986
06/13/24 12:29:12.610985 0.00000,0.00000,0.00000,0.00000,0.00000,0.00000,0.00000,0.00000,0.00000,0.00000,0.00000,0.00000 100 -0.00852,0.01703,0.00319 0.24432,0.95490,0.14874 -0.42750,0.13950,0.14700 -0.00852,0.01703,0.00319 0.24432,0.95490,0.14874 -0.42722,0.13711,0.14890 -0.02555,-0.05594,0.31897
06/13/24 12:29:12.649064 0.00000,0.00000,0.00000,0.00000,0.00000,0.00000,0.00000,0.00000,0.00000,0.00000,0.00000,0.00000 100 0.00213,-0.00639,-0.00426 0.24316,0.94714,0.14606 -0.43500,0.13200,0.14250 0.00213,-0.00639,-0.00426 0.24316,0.94714,0.14606 -0.43529,0.13210,0.14336 -0.02623,-0.06328,0.31528
06/13/24 12:29:12.692830 0.00000,0.00000,0.00000,0.00000,0.00000,0.00000,0.00000,0.00000,0.00000,0.00000,0.00000,0.00000 100 0.00213,-0.00958,0.00106 0.24677,0.95166,0.15240 -0.43800,0.13200,0.14400 0.00213,-0.00958,0.00106 0.24677,0.95166,0.15240 -0.43625,0.13283,0.14476 -0.02025,-0.05704,0.31653
06/13/24 12:29:12.730889 0.00000,0.00000,0.00000,0.00000,0.00000,0.00000,0.00000,0.00000,0.00000,0.00000,0.00000,0.00000 100 0.01810,0.01916,0.00426 0.24609,0.94873,0.14587 -0.43050,0.12900,0.14850 0.01810,0.01916,0.00426 0.24609,0.94873,0.14587 -0.43043,0.13189,0.15026 -0.02565,-0.06028,0.31336
06/13/24 12:29:12.774649 0.00000,0.00000,0.00000,0.00000,0.00000,0.00000,0.00000,0.00000,0.00000,0.00000,0.00000,0.00000 100 -0.01490,-0.00532,0.00426 0.24445,0.94836,0.15082 -0.42300,0.13500,0.14550 -0.01490,-0.00532,0.00426 0.24445,0.94836,0.15082 -0.42391,0.13469,0.14594 -0.02131,-0.06116,0.31626
06/13/24 12:29:12.813262 0.00000,0.00000,0.00000,0.00000,0.00000,0.00000,0.00000,0.00000,0.00000,0.00000,0.00000,0.00000 100 -0.01384,0.01065,-0.01278 0.24371,0.94977,0.14716 -0.42750,0.13050,0.14700 -0.01384,0.01065,-0.01278 0.24371,0.94977,0.14716 -0.42776,0.12936,0.14701 -0.02516,-0.06054,0.31606
06/13/24 12:29:12.856493 0.00000,0.00000,0.00000,0.00000,0.00000,0.00000,0.00000,0.00000,0.00000,0.00000,0.00000,0.00000 100 0.00319,-0.01278,0.00532 0.24438,0.94989,0.14728 -0.43050,0.12750,0.15000 0.00319,-0.01278,0.00532 0.24438,0.94989,0.14728 -0.43056,0.12915,0.14986 -0.02477,-0.06006,0.31561
