DateTime,StepIndex,StepHeading,StepDistanceX,StepDistanceY,StepDistance,StepTime,StepAmplitude,StepDutyCycle,StepRatio,Altitude,Confidence,AltitudeOffset,BatteryLevel,RawGyroX,RawGyroY,RawGyroZ,RawAccelX,RawAccelY,RawAccelZ,RawCompassX,RawCompassY,RawCompassZ,CorrectedGyroX,CorrectedGyroY,CorrectedGyroZ,CorrectedAccelX,CorrectedAccelY,CorrectedAccelZ,CorrectedCompassX,CorrectedCompassY,CorrectedCompassZ,LinearAccelX,LinearAccelY,LinearAccelZ
06/13/24 12:27:45.301415,0.00000,0.00000,0.00000,0.00000,0.00000,0.00000,0.00000,0.00000,0.00000,0.00000,0.00000,0.00000,96,-0.15011,0.03620,-0.71330,0.18982,1.00171,-0.13232,0.03150,-0.36600,0.00150,-0.15011,0.03620,-0.71330,0.18982,1.00171,-0.13232,0.05890,-0.35418,-0.01023,-0.15223,0.01669,0.01113
06/13/24 12:27:45.343155,0.00000,0.00000,0.00000,0.00000,0.00000,0.00000,0.00000,0.00000,0.00000,0.00000,0.00000,0.00000,96,0.14692,-0.04471,-0.53444,0.07733,0.94824,-0.24139,0.03900,-0.36150,0.00600,0.14692,-0.04471,-0.53444,0.07733,0.94824,-0.24139,0.03823,-0.36246,0.00547,-0.10708,-0.03853,0.16589
06/13/24 12:27:45.386715,0.00000,0.00000,0.00000,0.00000,0.00000,0.00000,0.00000,0.00000,0.00000,0.00000,0.00000,0.00000,96,-0.83253,-0.00958,0.23635,0.15369,0.92615,-0.25348,0.04200,-0.36300,0.00000,-0.83253,-0.00958,0.23635,0.15369,0.92615,-0.25348,0.04302,-0.36369,0.00284,-0.09954,-0.04815,0.17230
06/13/24 12:27:45.430614,0.00000,0.00000,0.00000,0.00000,0.00000,0.00000,0.00000,0.00000,0.00000,0.00000,0.00000,0.00000,96,-0.75588,-0.23847,-5.41998,0.39557,1.00977,-0.03186,0.04350,-0.36600,-0.02700,-0.75588,-0.23847,-5.41998,0.39557,1.00977,-0.03186,0.04369,-0.36556,-0.02581,-0.42487,-0.04125,0.27820
06/13/24 12:27:45.474068,0.00000,0.00000,0.00000,0.00000,0.00000,0.00000,0.00000,0.00000,0.00000,0.00000,0.00000,0.00000,96,-0.87618,0.21292,0.77291,-0.15521,0.98193,0.00354,0.09300,-0.34650,-0.03600,-0.87618,0.21292,0.77291,-0.15521,0.98193,0.00354,0.09078,-0.34809,-0.03815,-0.15701,-0.02354,-0.10088
06/13/24 12:27:45.518085,0.00000,0.00000,0.00000,0.00000,0.00000,0.00000,0.00000,0.00000,0.00000,0.00000,0.00000,0.00000,96,-0.01384,0.04684,-0.73033,-0.15845,0.98267,-0.07385,0.08550,-0.34650,-0.04200,-0.01384,0.04684,-0.73033,-0.15845,0.98267,-0.07385,0.08631,-0.34596,-0.04276,-0.07522,-0.00764,-0.07593
06/13/24 12:27:45.564179,0.00000,0.00000,0.00000,0.00000,0.00000,0.00000,0.00000,0.00000,0.00000,0.00000,0.00000,0.00000,96,-0.32684,-0.02236,-0.47801,-0.09460,0.99554,-0.10004,0.09000,-0.33900,-0.03750,-0.32684,-0.02236,-0.47801,-0.09460,0.99554,-0.10004,0.08908,-0.34222,-0.03923,-0.06875,0.00204,-0.03530
06/13/24 12:27:45.607723,0.00000,0.00000,0.00000,0.00000,0.00000,0.00000,0.00000,0.00000,0.00000,0.00000,0.00000,0.00000,96,0.00106,-0.14692,-0.11179,-0.09668,0.97662,-0.07684,0.09150,-0.33750,-0.04650,0.00106,-0.14692,-0.11179,-0.09668,0.97662,-0.07684,0.09413,-0.33934,-0.04538,-0.06044,-0.01962,-0.06521
06/13/24 12:27:45.651600,0.00000,0.00000,0.00000,0.00000,0.00000,0.00000,0.00000,0.00000,0.00000,0.00000,0.00000,0.00000,96,-0.07985,-0.17886,0.11391,-0.09784,0.97552,-0.05139,0.09900,-0.34050,-0.04050,-0.07985,-0.17886,0.11391,-0.09784,0.97552,-0.05139,0.09687,-0.33934,-0.04566,-0.05794,-0.02484,-0.09784
06/13/24 12:27:45.694977,0.00000,0.00000,0.00000,0.00000,0.00000,0.00000,0.00000,0.00000,0.00000,0.00000,0.00000,0.00000,96,-0.01384,-0.18418,-0.20441,-0.09564,1.01251,-0.06647,0.09750,-0.33900,-0.04800,-0.01384,-0.18418,-0.20441,-0.09564,1.01251,-0.06647,0.09726,-0.33821,-0.04425,-0.03984,0.01341,-0.10075
06/13/24 12:27:45.738998,0.00000,0.00000,0.00000,0.00000,0.00000,0.00000,0.00000,0.00000,0.00000,0.00000,0.00000,0.00000,96,-0.08091,-0.03194,-0.13947,-0.11761,0.97711,-0.06244,0.10200,-0.33450,-0.04650,-0.08091,-0.03194,-0.13947,-0.11761,0.97711,-0.06244,0.10138,-0.33860,-0.04709,-0.01536,-0.02129,-0.11987
06/13/24 12:27:45.782810,0.00000,0.00000,0.00000,0.00000,0.00000,0.00000,0.00000,0.00000,0.00000,0.00000,0.00000,0.00000,96,0.01810,0.02662,0.01810,-0.10278,0.96466,-0.08557,0.10350,-0.33600,-0.04650,0.01810,0.02662,0.01810,-0.10278,0.96466,-0.08557,0.10249,-0.33691,-0.04856,0.00113,-0.03120,-0.09938
06/13/24 12:27:45.826134,0.00000,0.00000,0.00000,0.00000,0.00000,0.00000,0.00000,0.00000,0.00000,0.00000,0.00000,0.00000,96,0.05323,0.02768,-0.18205,-0.05627,1.02478,-0.06683,0.10200,-0.32850,-0.04800,0.05323,0.02768,-0.18205,-0.05627,1.02478,-0.06683,0.10266,-0.33472,-0.04947,-0.04934,0.02397,-0.08282
06/13/24 12:27:45.870197,0.00000,0.00000,0.00000,0.00000,0.00000,0.00000,0.00000,0.00000,0.00000,0.00000,0.00000,0.00000,96,0.12456,-0.00319,-0.10433,-0.15771,0.94995,-0.07477,0.10800,-0.33000,-0.05250,0.12456,-0.00319,-0.10433,-0.15771,0.94995,-0.07477,0.10585,-0.33157,-0.05261,0.02486,-0.04410,-0.13602
06/13/24 12:27:45.913574,0.00000,0.00000,0.00000,0.00000,0.00000,0.00000,0.00000,0.00000,0.00000,0.00000,0.00000,0.00000,96,-0.04258,-0.15650,-0.07026,-0.13104,0.97412,-0.06085,0.10950,-0.33300,-0.05400,-0.04258,-0.15650,-0.07026,-0.13104,0.97412,-0.06085,0.10720,-0.33330,-0.05124,-0.00413,-0.02389,-0.13028
06/13/24 12:27:45.957470,0.00000,0.00000,0.00000,0.00000,0.00000,0.00000,0.00000,0.00000,0.00000,0.00000,0.00000,0.00000,96,0.03939,-0.08410,-0.16502,-0.15796,0.98901,-0.07184,0.10500,-0.33300,-0.04800,0.03939,-0.08410,-0.16502,-0.15796,0.98901,-0.07184,0.10689,-0.33308,-0.04881,0.01954,-0.00621,-0.14232
06/13/24 12:27:46.001537,0.00000,0.00000,0.00000,0.00000,0.00000,0.00000,0.00000,0.00000,0.00000,0.00000,0.00000,0.00000,96,0.03620,0.01490,0.03726,-0.13898,0.94916,-0.11768,0.10500,-0.32850,-0.04800,0.03620,0.01490,0.03726,-0.13898,0.94916,-0.11768,0.10946,-0.33287,-0.05074,0.04374,-0.03927,-0.09568
06/13/24 12:27:46.044880,0.00000,0.00000,0.00000,0.00000,0.00000,0.00000,0.00000,0.00000,0.00000,0.00000,0.00000,0.00000,96,-0.21186,-0.00532,0.90173,0.01593,1.05658,-0.04584,0.10200,-0.33600,-0.04350,-0.21186,-0.00532,0.90173,0.01593,1.05658,-0.04584,0.10279,-0.33601,-0.04444,-0.09801,0.05028,-0.07765
06/13/24 12:27:46.088688,0.00000,0.00000,0.00000,0.00000,0.00000,0.00000,0.00000,0.00000,0.00000,0.00000,0.00000,0.00000,96,0.10114,0.02981,-1.38188,-0.20850,0.95215,-0.08539,0.09600,-0.34050,-0.05100,0.10114,0.02981,-1.38188,-0.20850,0.95215,-0.08539,0.09576,-0.34039,-0.05027,0.08147,-0.04125,-0.17750
06/13/24 12:27:46.132244,0.00000,0.00000,0.00000,0.00000,0.00000,0.00000,0.00000,0.00000,0.00000,0.00000,0.00000,0.00000,96,0.01597,0.00106,0.19270,-0.08270,0.94592,-0.06750,0.10800,-0.32850,-0.05250,0.01597,0.00106,0.19270,-0.08270,0.94592,-0.06750,0.11165,-0.33565,-0.04717,-0.02928,-0.05334,-0.09563
06/13/24 12:27:46.176159,0.00000,0.00000,0.00000,0.00000,0.00000,0.00000,0.00000,0.00000,0.00000,0.00000,0.00000,0.00000,96,0.67390,-0.17566,2.72649,-0.14056,1.12292,-0.13904,0.09900,-0.33750,-0.04650,0.67390,-0.17566,2.72649,-0.14056,1.12292,-0.13904,0.10037,-0.33704,-0.04659,0.06445,0.12912,-0.14486
06/13/24 12:27:46.220020,0.00000,0.00000,0.00000,0.00000,0.00000,0.00000,0.00000,0.00000,0.00000,0.00000,0.00000,0.00000,96,-0.25444,0.00426,-0.36729,-0.03998,1.03430,-0.10681,0.08700,-0.34800,-0.04050,-0.25444,0.00426,-0.36729,-0.03998,1.03430,-0.10681,0.09712,-0.34248,-0.04527,0.02188,0.03361,-0.11811
06/13/24 12:27:46.263535,0.00000,0.00000,0.00000,0.00000,0.00000,0.00000,0.00000,0.00000,0.00000,0.00000,0.00000,0.00000,96,-0.05749,0.06281,-0.65474,-0.05890,0.96661,-0.08643,0.09000,-0.33900,-0.04500,-0.05749,0.06281,-0.65474,-0.05890,0.96661,-0.08643,0.09069,-0.34546,-0.04288,0.01196,-0.03472,-0.11564
06/13/24 12:27:46.307396,0.00000,0.00000,0.00000,0.00000,0.00000,0.00000,0.00000,0.00000,0.00000,0.00000,0.00000,0.00000,96,0.17673,0.02129,0.44820,-0.02258,0.96521,-0.08728,0.09900,-0.34200,-0.04650,0.17673,0.02129,0.44820,-0.02258,0.96521,-0.08728,0.09872,-0.34016,-0.04359,-0.02235,-0.03450,-0.08411
06/13/24 12:27:46.350758,0.00000,0.00000,0.00000,0.00000,0.00000,0.00000,0.00000,0.00000,0.00000,0.00000,0.00000,0.00000,96,0.04578,0.01171,0.51208,-0.04095,0.94574,-0.10443,0.09300,-0.33900,-0.03600,0.04578,0.01171,0.51208,-0.04095,0.94574,-0.10443,0.09848,-0.34123,-0.04373,0.01083,-0.05246,-0.09513
06/13/24 12:27:46.394794,0.00000,0.00000,0.00000,0.00000,0.00000,0.00000,0.00000,0.00000,0.00000,0.00000,0.00000,0.00000,96,-0.01810,-0.00532,0.09049,-0.02570,0.99268,-0.09137,0.08400,-0.34350,-0.04650,-0.01810,-0.00532,0.09049,-0.02570,0.99268,-0.09137,0.09202,-0.34207,-0.04182,-0.00662,-0.00840,-0.10532
06/13/24 12:27:46.438622,0.00000,0.00000,0.00000,0.00000,0.00000,0.00000,0.00000,0.00000,0.00000,0.00000,0.00000,0.00000,96,-0.00426,-0.01703,0.02768,-0.03992,0.96826,-0.06500,0.08700,-0.34800,-0.03900,-0.00426,-0.01703,0.02768,-0.03992,0.96826,-0.06500,0.08894,-0.34449,-0.04126,-0.01169,-0.03733,-0.12840
06/13/24 12:27:46.481979,0.00000,0.00000,0.00000,0.00000,0.00000,0.00000,0.00000,0.00000,0.00000,0.00000,0.00000,0.00000,96,-0.02874,-0.03194,0.03726,-0.03131,1.00745,-0.08417,0.08700,-0.34950,-0.04050,-0.02874,-0.03194,0.03726,-0.03131,1.00745,-0.08417,0.08739,-0.34656,-0.03988,-0.00643,0.00460,-0.11728
06/13/24 12:27:46.525974,0.00000,0.00000,0.00000,0.00000,0.00000,0.00000,0.00000,0.00000,0.00000,0.00000,0.00000,0.00000,96,0.20228,0.03087,-1.46279,0.00549,1.03864,-0.07135,0.08550,-0.34050,-0.04650,0.20228,0.03087,-1.46279,0.00549,1.03864,-0.07135,0.08548,-0.34386,-0.04237,-0.05855,0.03594,-0.08531
06/13/24 12:27:46.569332,0.00000,0.00000,0.00000,0.00000,0.00000,0.00000,0.00000,0.00000,0.00000,0.00000,0.00000,0.00000,96,-0.04578,-0.05749,0.01916,-0.17859,0.97089,-0.08868,0.10350,-0.33150,-0.04500,-0.04578,-0.05749,0.01916,-0.17859,0.97089,-0.08868,0.10265,-0.33208,-0.04473,0.05465,-0.02391,-0.16319
06/13/24 12:27:46.613228,0.00000,0.00000,0.00000,0.00000,0.00000,0.00000,0.00000,0.00000,0.00000,0.00000,0.00000,0.00000,96,-2.24102,-0.11285,-1.30842,-0.13171,1.45081,-0.04791,0.10350,-0.33150,-0.05550,-2.24102,-0.11285,-1.30842,-0.13171,1.45081,-0.04791,0.10223,-0.33260,-0.04918,-0.05346,0.44860,-0.15225
06/13/24 12:27:46.657291,0.00000,0.00000,0.00000,0.00000,0.00000,0.00000,0.00000,0.00000,0.00000,0.00000,0.00000,0.00000,96,-0.91131,-0.57702,0.05855,-0.28821,0.94226,0.40308,0.11700,-0.34650,-0.10650,-0.91131,-0.57702,0.05855,-0.28821,0.94226,0.40308,0.11504,-0.34547,-0.09930,-0.14278,-0.04394,-0.44604
06/13/24 12:27:46.700764,0.00000,0.00000,0.00000,0.00000,0.00000,0.00000,0.00000,0.00000,0.00000,0.00000,0.00000,0.00000,96,1.58415,-1.19024,1.22964,-0.22528,1.11646,-0.08942,0.11550,-0.38700,-0.11250,1.58415,-1.19024,1.22964,-0.22528,1.11646,-0.08942,0.11511,-0.38547,-0.11241,0.14006,0.13020,-0.09080
06/13/24 12:27:46.744862,0.00000,0.00000,0.00000,0.00000,0.00000,0.00000,0.00000,0.00000,0.00000,0.00000,0.00000,0.00000,96,0.01384,-1.66187,1.01139,-0.10260,1.06122,-0.19781,0.11700,-0.40950,-0.10950,0.01384,-1.66187,1.01139,-0.10260,1.06122,-0.19781,0.11462,-0.40549,-0.10846,0.11476,0.07724,0.04709
06/13/24 12:27:46.788307,0.00000,0.00000,0.00000,0.00000,0.00000,0.00000,0.00000,0.00000,0.00000,0.00000,0.00000,0.00000,96,-0.52060,-2.08240,-0.87405,-0.05200,1.07385,-0.07373,0.11250,-0.43500,-0.12150,-0.52060,-2.08240,-0.87405,-0.05200,1.07385,-0.07373,0.11295,-0.41751,-0.11089,0.00985,0.07714,-0.03135
06/13/24 12:27:46.832188,0.00000,0.00000,0.00000,0.00000,0.00000,0.00000,0.00000,0.00000,0.00000,0.00000,0.00000,0.00000,96,-0.14053,-1.54157,-1.33397,-0.02686,1.03552,0.15881,0.11700,-0.45150,-0.15750,-0.14053,-1.54157,-1.33397,-0.02686,1.03552,0.15881,0.11626,-0.44309,-0.14574,-0.15866,0.02051,-0.17790
06/13/24 12:27:46.876263,0.00000,0.00000,0.00000,0.00000,0.00000,0.00000,0.00000,0.00000,0.00000,0.00000,0.00000,0.00000,96,1.56286,-0.88257,-0.33536,-0.14526,1.04480,0.01550,0.14400,-0.46350,-0.16050,1.56286,-0.88257,-0.33536,-0.14526,1.04480,0.01550,0.13703,-0.45993,-0.16124,-0.04169,0.04694,-0.12302
06/13/24 12:27:46.919720,0.00000,0.00000,0.00000,0.00000,0.00000,0.00000,0.00000,0.00000,0.00000,0.00000,0.00000,0.00000,96,0.09582,-0.56957,1.58415,-0.11084,0.75134,-0.10864,0.13950,-0.48150,-0.12900,0.09582,-0.56957,1.58415,-0.11084,0.75134,-0.10864,0.14340,-0.47212,-0.14210,0.04278,-0.23412,-0.01400
06/13/24 12:27:46.963558,0.00000,0.00000,0.00000,0.00000,0.00000,0.00000,0.00000,0.00000,0.00000,0.00000,0.00000,0.00000,96,-0.16076,0.64409,1.71084,-0.28339,0.32104,-0.10052,0.12150,-0.49800,-0.13200,-0.16076,0.64409,1.71084,-0.28339,0.32104,-0.10052,0.12218,-0.49634,-0.13223,0.27744,-0.66297,-0.05404
06/13/24 12:27:47.007130,0.00000,0.00000,0.00000,0.00000,0.00000,0.00000,0.00000,0.00000,0.00000,0.00000,0.00000,0.00000,96,-0.46737,0.74310,1.49473,0.04956,0.48218,-0.09766,0.08250,-0.51450,-0.12000,-0.46737,0.74310,1.49473,0.04956,0.48218,-0.09766,0.09801,-0.51138,-0.12330,-0.00450,-0.50763,0.04517
06/13/24 12:27:47.050980,0.00000,0.00000,0.00000,0.00000,0.00000,0.00000,0.00000,0.00000,0.00000,0.00000,0.00000,0.00000,96,-1.79175,0.02555,3.40146,0.14996,0.33484,-0.05310,0.04950,-0.52500,-0.13200,-1.79175,0.02555,3.40146,0.14996,0.33484,-0.05310,0.05343,-0.52274,-0.12949,-0.07211,-0.64240,0.06593
06/13/24 12:27:47.094913,0.00000,0.00000,0.00000,0.00000,0.00000,0.00000,0.00000,0.00000,0.00000,0.00000,0.00000,0.00000,96,-5.26880,1.12637,-5.17618,0.56793,0.18353,-0.09918,-0.01950,-0.52800,-0.18450,-5.26880,1.12637,-5.17618,0.56793,0.18353,-0.09918,-0.01747,-0.52906,-0.18102,-0.41607,-0.71549,0.33468
06/13/24 12:27:47.138573,0.00000,0.00000,0.00000,0.00000,0.00000,0.00000,0.00000,0.00000,0.00000,0.00000,0.00000,0.00000,96,6.24506,0.75162,-2.72862,-0.81158,0.95929,0.16412,0.07950,-0.47550,-0.21600,6.24506,0.75162,-2.72862,-0.81158,0.95929,0.16412,0.07050,-0.47978,-0.22269,0.61499,0.00744,-0.46119
06/13/24 12:27:47.182575,0.00000,0.00000,0.00000,0.00000,0.00000,0.00000,0.00000,0.00000,0.00000,0.00000,0.00000,0.00000,96,-1.72362,-0.18524,-6.73904,-1.65479,1.14813,0.48920,0.12900,-0.40650,-0.17400,-1.72362,-0.18524,-6.73904,-1.65479,1.14813,0.48920,0.12005,-0.41900,-0.17530,0.83459,0.61793,-0.99075
06/13/24 12:27:47.226109,0.00000,0.00000,0.00000,0.00000,0.00000,0.00000,0.00000,0.00000,0.00000,0.00000,0.00000,0.00000,96,6.60916,-2.06536,1.91206,0.01202,0.76941,0.20593,0.13800,-0.32700,-0.21900,6.60916,-2.06536,1.91206,0.01202,0.76941,0.20593,0.13931,-0.33024,-0.21545,-0.31453,-0.27014,-0.05406
06/13/24 12:27:47.270355,0.00000,0.00000,0.00000,0.00000,0.00000,0.00000,0.00000,0.00000,0.00000,0.00000,0.00000,0.00000,96,4.66090,-0.45459,-0.56638,-0.16846,1.21100,-0.15594,0.09450,-0.29100,-0.17850,4.66090,-0.45459,-0.56638,-0.16846,1.21100,-0.15594,0.09909,-0.30181,-0.19031,-0.28845,0.19568,-0.07971
06/13/24 12:27:47.314373,0.00000,0.00000,0.00000,0.00000,0.00000,0.00000,0.00000,0.00000,0.00000,0.00000,0.00000,0.00000,96,-1.21686,0.71010,0.67071,-0.49115,0.94177,-0.06146,0.08850,-0.25650,-0.16350,-1.21686,0.71010,0.67071,-0.49115,0.94177,-0.06146,0.08842,-0.25761,-0.16357,0.12817,0.02523,-0.25383
06/13/24 12:27:47.357910,0.00000,0.00000,0.00000,0.00000,0.00000,0.00000,0.00000,0.00000,0.00000,0.00000,0.00000,0.00000,96,-1.78430,0.34920,-0.01490,-0.32697,1.03204,-0.12305,0.10500,-0.26700,-0.15450,-1.78430,0.34920,-0.01490,-0.32697,1.03204,-0.12305,0.10075,-0.26469,-0.15514,0.00296,0.08557,-0.09323
06/13/24 12:27:47.402058,0.00000,0.00000,0.00000,0.00000,0.00000,0.00000,0.00000,0.00000,0.00000,0.00000,0.00000,0.00000,96,-1.21367,0.13308,-0.29596,-0.47522,0.94476,0.05463,0.10650,-0.27150,-0.16200,-1.21367,0.13308,-0.29596,-0.47522,0.94476,0.05463,0.10655,-0.27147,-0.16224,0.11864,0.02376,-0.24336
06/13/24 12:27:47.445572,0.00000,0.00000,0.00000,0.00000,0.00000,0.00000,0.00000,0.00000,0.00000,0.00000,0.00000,0.00000,96,-1.15511,-0.39497,0.33961,-0.15381,0.73834,-0.12115,0.11850,-0.28800,-0.18300,-1.15511,-0.39497,0.33961,-0.15381,0.73834,-0.12115,0.11809,-0.28722,-0.17986,-0.02874,-0.24457,0.10944
06/13/24 12:27:47.489521,0.00000,0.00000,0.00000,0.00000,0.00000,0.00000,0.00000,0.00000,0.00000,0.00000,0.00000,0.00000,96,-0.38326,-0.34494,0.09475,-0.35052,0.97870,-0.01379,0.11550,-0.28500,-0.19500,-0.38326,-0.34494,0.09475,-0.35052,0.97870,-0.01379,0.11537,-0.28543,-0.19491,0.05556,0.03792,-0.02343
06/13/24 12:27:47.533669,0.00000,0.00000,0.00000,0.00000,0.00000,0.00000,0.00000,0.00000,0.00000,0.00000,0.00000,0.00000,96,-0.22357,-0.23528,-0.35132,-0.30530,0.92828,0.10284,0.12300,-0.29100,-0.20100,-0.22357,-0.23528,-0.35132,-0.30530,0.92828,0.10284,0.12090,-0.28914,-0.19903,0.00190,-0.02123,-0.08663
06/13/24 12:27:47.577168,0.00000,0.00000,0.00000,0.00000,0.00000,0.00000,0.00000,0.00000,0.00000,0.00000,0.00000,0.00000,96,0.80911,0.01171,-0.22144,-0.16260,0.97400,0.00421,0.11850,-0.28350,-0.20850,0.80911,0.01171,-0.22144,-0.16260,0.97400,0.00421,0.11615,-0.28509,-0.20888,-0.11196,-0.02085,0.06215
06/13/24 12:27:47.621284,0.00000,0.00000,0.00000,0.00000,0.00000,0.00000,0.00000,0.00000,0.00000,0.00000,0.00000,0.00000,96,0.38007,0.09369,-0.39497,-0.34369,0.84473,0.09186,0.12150,-0.28500,-0.20250,0.38007,0.09369,-0.39497,-0.34369,0.84473,0.09186,0.11953,-0.28345,-0.20435,0.04699,-0.08853,-0.08446
06/13/24 12:27:47.664749,0.00000,0.00000,0.00000,0.00000,0.00000,0.00000,0.00000,0.00000,0.00000,0.00000,0.00000,0.00000,96,1.17428,0.17779,-0.39072,-0.46594,0.91284,0.01379,0.12600,-0.28500,-0.19200,1.17428,0.17779,-0.39072,-0.46594,0.91284,0.01379,0.12466,-0.28629,-0.19324,0.13001,0.01441,-0.06817
06/13/24 12:27:47.708687,0.00000,0.00000,0.00000,0.00000,0.00000,0.00000,0.00000,0.00000,0.00000,0.00000,0.00000,0.00000,96,0.04897,-0.02768,0.17779,-0.23932,0.67090,-0.04279,0.12450,-0.27900,-0.18150,0.04897,-0.02768,0.17779,-0.23932,0.67090,-0.04279,0.12849,-0.27935,-0.18537,0.01735,-0.28665,0.00663
06/13/24 12:27:47.752342,0.00000,0.00000,0.00000,0.00000,0.00000,0.00000,0.00000,0.00000,0.00000,0.00000,0.00000,0.00000,96,-1.24348,-0.13840,-0.22676,-0.70416,1.10101,0.09900,0.12600,-0.28650,-0.17550,-1.24348,-0.13840,-0.22676,-0.70416,1.10101,0.09900,0.12572,-0.28548,-0.17671,0.28708,0.25982,-0.21980
06/13/24 12:27:47.796314,0.00000,0.00000,0.00000,0.00000,0.00000,0.00000,0.00000,0.00000,0.00000,0.00000,0.00000,0.00000,96,-2.18566,-0.45992,0.02768,-0.42224,0.67279,0.13477,0.13500,-0.28650,-0.19350,-2.18566,-0.45992,0.02768,-0.42224,0.67279,0.13477,0.13391,-0.28455,-0.19024,0.16179,-0.22217,-0.13377
06/13/24 12:27:47.840275,0.00000,0.00000,0.00000,0.00000,0.00000,0.00000,0.00000,0.00000,0.00000,0.00000,0.00000,0.00000,96,-1.05397,-0.30235,-1.16256,-0.60083,1.26178,0.11957,0.14700,-0.26550,-0.21600,-1.05397,-0.30235,-1.16256,-0.60083,1.26178,0.11957,0.14501,-0.26678,-0.21570,0.12042,0.39723,0.02517
06/13/24 12:27:47.883999,0.00000,0.00000,0.00000,0.00000,0.00000,0.00000,0.00000,0.00000,0.00000,0.00000,0.00000,0.00000,96,0.03833,-0.70158,-1.39997,-0.38617,0.68036,0.15002,0.17400,-0.25800,-0.24750,0.03833,-0.70158,-1.39997,-0.38617,0.68036,0.15002,0.15998,-0.26464,-0.23592,0.05913,-0.20757,-0.05548
06/13/24 12:27:47.927952,0.00000,0.00000,0.00000,0.00000,0.00000,0.00000,0.00000,0.00000,0.00000,0.00000,0.00000,0.00000,96,1.17960,-0.97093,-0.87938,-0.26788,0.73425,0.11633,0.19500,-0.24750,-0.25950,1.17960,-0.97093,-0.87938,-0.26788,0.73425,0.11633,0.18900,-0.25125,-0.25597,-0.08755,-0.21472,0.00934
06/13/24 12:27:47.971424,0.00000,0.00000,0.00000,0.00000,0.00000,0.00000,0.00000,0.00000,0.00000,0.00000,0.00000,0.00000,96,1.22431,-0.90386,0.43756,-0.58667,0.57129,-0.14380,0.19950,-0.24300,-0.25050,1.22431,-0.90386,0.43756,-0.58667,0.57129,-0.14380,0.19940,-0.24372,-0.25181,0.30011,-0.24755,0.18705
06/13/24 12:27:48.015495,0.00000,0.00000,0.00000,0.00000,0.00000,0.00000,0.00000,0.00000,0.00000,0.00000,0.00000,0.00000,96,-0.07133,-0.60790,-0.65474,-0.80145,1.04681,0.66345,0.20250,-0.23700,-0.24750,-0.07133,-0.60790,-0.65474,-0.80145,1.04681,0.66345,0.20077,-0.23771,-0.24969,0.18382,0.35568,-0.55377
06/13/24 12:27:48.059418,0.00000,0.00000,0.00000,0.00000,0.00000,0.00000,0.00000,0.00000,0.00000,0.00000,0.00000,0.00000,96,-2.36452,-0.26615,-0.63771,-0.63373,0.88611,0.24713,0.22050,-0.22800,-0.25650,-2.36452,-0.26615,-0.63771,-0.63373,0.88611,0.24713,0.21490,-0.23386,-0.25439,0.08937,0.11188,-0.06012
06/13/24 12:27:48.102936,0.00000,0.00000,0.00000,0.00000,0.00000,0.00000,0.00000,0.00000,0.00000,0.00000,0.00000,0.00000,96,-0.89747,-0.27148,-1.58948,-0.23969,0.81610,0.15265,0.23700,-0.22050,-0.26400,-0.89747,-0.27148,-1.58948,-0.23969,0.81610,0.15265,0.23649,-0.22087,-0.26374,-0.23144,-0.17257,0.09253
06/13/24 12:27:48.147121,0.00000,0.00000,0.00000,0.00000,0.00000,0.00000,0.00000,0.00000,0.00000,0.00000,0.00000,0.00000,96,-0.40349,-0.34707,-1.60012,-0.23560,0.99408,-0.24377,0.25350,-0.20400,-0.27000,-0.40349,-0.34707,-1.60012,-0.23560,0.99408,-0.24377,0.25259,-0.20611,-0.26762,-0.30575,-0.16174,0.55404
06/13/24 12:27:48.190601,0.00000,0.00000,0.00000,0.00000,0.00000,0.00000,0.00000,0.00000,0.00000,0.00000,0.00000,0.00000,96,0.11285,-0.25444,-0.69839,-0.87872,0.79340,0.22620,0.25650,-0.18450,-0.26850,0.11285,-0.25444,-0.69839,-0.87872,0.79340,0.22620,0.25511,-0.18554,-0.26855,0.22327,0.18215,0.07391
06/13/24 12:27:48.234535,0.00000,0.00000,0.00000,0.00000,0.00000,0.00000,0.00000,0.00000,0.00000,0.00000,0.00000,0.00000,96,1.21686,-0.30022,-1.03800,-0.50647,0.73163,0.18951,0.25800,-0.17100,-0.27000,1.21686,-0.30022,-1.03800,-0.50647,0.73163,0.18951,0.25756,-0.17106,-0.27105,-0.07600,-0.09503,0.05434
06/13/24 12:27:48.278713,0.00000,0.00000,0.00000,0.00000,0.00000,0.00000,0.00000,0.00000,0.00000,0.00000,0.00000,0.00000,96,1.35952,-0.20334,-0.54189,-0.62738,0.40283,0.39386,0.25050,-0.16050,-0.28500,1.35952,-0.20334,-0.54189,-0.62738,0.40283,0.39386,0.25044,-0.16344,-0.28424,0.17280,-0.21096,-0.24200
06/13/24 12:27:48.322220,0.00000,0.00000,0.00000,0.00000,0.00000,0.00000,0.00000,0.00000,0.00000,0.00000,0.00000,0.00000,96,0.93261,-0.27361,0.03194,-0.76587,1.03839,0.22333,0.24600,-0.15750,-0.28350,0.93261,-0.27361,0.03194,-0.76587,1.03839,0.22333,0.24699,-0.15837,-0.28323,-0.13553,0.30176,0.04170
06/13/24 12:27:48.366451,0.00000,0.00000,0.00000,0.00000,0.00000,0.00000,0.00000,0.00000,0.00000,0.00000,0.00000,0.00000,96,0.21931,-0.25125,-0.01810,-0.62195,0.62238,0.27295,0.24750,-0.16500,-0.28050,0.21931,-0.25125,-0.01810,-0.62195,0.62238,0.27295,0.24565,-0.16558,-0.27816,0.04480,-0.08459,-0.09321
06/13/24 12:27:48.409973,0.00000,0.00000,0.00000,0.00000,0.00000,0.00000,0.00000,0.00000,0.00000,0.00000,0.00000,0.00000,96,-0.24912,-0.15543,0.17779,-0.65057,0.72772,0.23853,0.23700,-0.16050,-0.28800,-0.24912,-0.15543,0.17779,-0.65057,0.72772,0.23853,0.23769,-0.16193,-0.28503,-0.00754,0.00465,-0.01860
06/13/24 12:27:48.453934,0.00000,0.00000,0.00000,0.00000,0.00000,0.00000,0.00000,0.00000,0.00000,0.00000,0.00000,0.00000,96,1.52560,-0.01384,0.10540,-0.55084,0.70642,0.18005,0.23850,-0.16650,-0.28800,1.52560,-0.01384,0.10540,-0.55084,0.70642,0.18005,0.23818,-0.16674,-0.28827,-0.06011,-0.08827,0.00434
06/13/24 12:27:48.498135,0.00000,0.00000,0.00000,0.00000,0.00000,0.00000,0.00000,0.00000,0.00000,0.00000,0.00000,0.00000,96,1.58841,-0.26722,1.23283,-0.59088,0.63458,0.28717,0.23400,-0.19500,-0.27900,1.58841,-0.26722,1.23283,-0.59088,0.63458,0.28717,0.23631,-0.18801,-0.28249,0.06956,-0.09898,-0.13277
06/13/24 12:27:48.541592,0.00000,0.00000,0.00000,0.00000,0.00000,0.00000,0.00000,0.00000,0.00000,0.00000,0.00000,0.00000,96,-0.15756,-0.17779,0.48653,-0.56036,1.04846,0.18951,0.22050,-0.20100,-0.27450,-0.15756,-0.17779,0.48653,-0.56036,1.04846,0.18951,0.22191,-0.19843,-0.27581,-0.17155,0.19129,-0.02448
06/13/24 12:27:48.585583,0.00000,0.00000,0.00000,0.00000,0.00000,0.00000,0.00000,0.00000,0.00000,0.00000,0.00000,0.00000,96,0.28106,-0.50569,-0.32790,-0.63104,0.73035,0.09033,0.21750,-0.19500,-0.28050,0.28106,-0.50569,-0.32790,-0.63104,0.73035,0.09033,0.21563,-0.19916,-0.27825,0.05670,-0.03382,0.05525
06/13/24 12:27:48.629223,0.00000,0.00000,0.00000,0.00000,0.00000,0.00000,0.00000,0.00000,0.00000,0.00000,0.00000,0.00000,96,0.68455,-0.88044,0.05642,-0.62872,0.67767,0.13947,0.21000,-0.18900,-0.29400,0.68455,-0.88044,0.05642,-0.62872,0.67767,0.13947,0.21495,-0.19647,-0.28171,0.07256,-0.06798,0.00818
06/13/24 12:27:48.673214,0.00000,0.00000,0.00000,0.00000,0.00000,0.00000,0.00000,0.00000,0.00000,0.00000,0.00000,0.00000,96,0.73885,-0.45140,0.05323,-0.53235,0.98511,0.35876,0.19350,-0.19350,-0.30900,0.73885,-0.45140,0.05323,-0.53235,0.98511,0.35876,0.19670,-0.19487,-0.30719,-0.16834,0.14738,-0.19423
06/13/24 12:27:48.717171,0.00000,0.00000,0.00000,0.00000,0.00000,0.00000,0.00000,0.00000,0.00000,0.00000,0.00000,0.00000,96,-0.85063,0.14372,-0.99648,-0.58917,1.06897,0.18079,0.19650,-0.19950,-0.30450,-0.85063,0.14372,-0.99648,-0.58917,1.06897,0.18079,0.19618,-0.19866,-0.30521,-0.20802,0.21622,0.00666
06/13/24 12:27:48.760830,0.00000,0.00000,0.00000,0.00000,0.00000,0.00000,0.00000,0.00000,0.00000,0.00000,0.00000,0.00000,96,-1.06249,0.07239,-1.91419,-0.71082,0.80774,0.16962,0.20400,-0.18150,-0.31500,-1.06249,0.07239,-1.91419,-0.71082,0.80774,0.16962,0.19869,-0.17932,-0.31123,-0.03120,0.08789,0.04463
06/13/24 12:27:48.804886,0.00000,0.00000,0.00000,0.00000,0.00000,0.00000,0.00000,0.00000,0.00000,0.00000,0.00000,0.00000,96,-0.26828,-0.40243,-0.73246,-0.54449,0.21515,0.04395,0.21750,-0.16500,-0.34050,-0.26828,-0.40243,-0.73246,-0.54449,0.21515,0.04395,0.21637,-0.16560,-0.33834,0.21974,-0.46128,0.07867
06/13/24 12:27:48.917976,0.00000,279.26999,0.12307,-0.75402,0.76400,0.29400,0.04000,0.16700,0.07500,217.26010,100.00000,0.06614,96,0.90173,-0.49398,-0.98903,-0.99207,0.69733,0.07129,0.21900,-0.15450,-0.35700,0.90173,-0.49398,-0.98903,-0.99207,0.69733,0.07129,0.21951,-0.15721,-0.35182,0.11198,0.19231,0.20348
06/13/24 12:27:48.961830,0.00000,279.26999,0.12307,-0.75402,0.76400,0.29400,0.04000,0.16700,0.07500,217.26010,100.00000,0.06614,96,-0.85276,0.11817,-0.05642,-0.61340,0.64960,0.21729,0.21150,-0.14700,-0.37950,-0.85276,0.11817,-0.05642,-0.61340,0.64960,0.21729,0.21102,-0.14737,-0.38133,-0.17028,-0.10065,-0.08733
06/13/24 12:27:49.006111,0.00000,279.26999,0.12307,-0.75402,0.76400,0.29400,0.04000,0.16700,0.07500,217.26010,100.00000,0.06614,96,-0.30342,0.08304,0.09901,-0.80365,0.55609,0.14191,0.22050,-0.13800,-0.38100,-0.30342,0.08304,0.09901,-0.80365,0.55609,0.14191,0.21229,-0.14696,-0.38036,0.02405,-0.01469,0.06174
06/13/24 12:27:49.049816,0.00000,279.26999,0.12307,-0.75402,0.76400,0.29400,0.04000,0.16700,0.07500,217.26010,100.00000,0.06614,96,-0.12882,0.03513,0.12137,-0.78241,0.61719,0.20178,0.21150,-0.13050,-0.36750,-0.12882,0.03513,0.12137,-0.78241,0.61719,0.20178,0.21432,-0.13899,-0.37407,-0.02756,0.01627,0.01544
06/13/24 12:27:49.094204,0.00000,279.26999,0.12307,-0.75402,0.76400,0.29400,0.04000,0.16700,0.07500,217.26010,100.00000,0.06614,96,-0.02874,0.02555,0.09049,-0.73108,0.54803,0.21210,0.22050,-0.13200,-0.36900,-0.02874,0.02555,0.09049,-0.73108,0.54803,0.21210,0.21441,-0.13783,-0.37280,0.00436,-0.06215,0.01505
06/13/24 12:27:49.138447,0.00000,279.26999,0.12307,-0.75402,0.76400,0.29400,0.04000,0.16700,0.07500,217.26010,100.00000,0.06614,96,0.05430,-0.01065,0.45566,-0.76794,0.60181,0.23859,0.21000,-0.14100,-0.37050,0.05430,-0.01065,0.45566,-0.76794,0.60181,0.23859,0.21478,-0.13786,-0.37235,-0.00419,0.00427,0.01592
06/13/24 12:27:49.182335,0.00000,279.26999,0.12307,-0.75402,0.76400,0.29400,0.04000,0.16700,0.07500,217.26010,100.00000,0.06614,96,0.01597,-0.05004,0.40243,-0.75946,0.61060,0.17322,0.21600,-0.14700,-0.36450,0.01597,-0.05004,0.40243,-0.75946,0.61060,0.17322,0.21424,-0.13528,-0.37140,0.00228,-0.01475,0.09426
06/13/24 12:27:49.226593,0.00000,279.26999,0.12307,-0.75402,0.76400,0.29400,0.04000,0.16700,0.07500,217.26010,100.00000,0.06614,96,-0.02129,-0.10433,0.34281,-0.71326,0.58881,0.24280,0.20400,-0.13350,-0.36150,-0.02129,-0.10433,0.34281,-0.71326,0.58881,0.24280,0.21453,-0.13668,-0.36904,0.00198,-0.04408,0.02431
06/13/24 12:27:49.270248,0.00000,279.26999,0.12307,-0.75402,0.76400,0.29400,0.04000,0.16700,0.07500,217.26010,100.00000,0.06614,96,0.02768,-0.02874,0.76759,-0.65857,0.52307,0.16583,0.20700,-0.14400,-0.37650,0.02768,-0.02874,0.76759,-0.65857,0.52307,0.16583,0.21078,-0.13817,-0.37070,0.03404,-0.14738,0.08182
06/13/24 12:27:49.314693,0.00000,279.26999,0.12307,-0.75402,0.76400,0.29400,0.04000,0.16700,0.07500,217.26010,100.00000,0.06614,96,0.70797,-0.18418,0.35239,-0.70746,0.75293,0.32446,0.19200,-0.15000,-0.37500,0.70797,-0.18418,0.35239,-0.70746,0.75293,0.32446,0.20171,-0.14476,-0.37074,-0.08332,0.07957,-0.01608
06/13/24 12:27:49.358891,0.00000,279.26999,0.12307,-0.75402,0.76400,0.29400,0.04000,0.16700,0.07500,217.26010,100.00000,0.06614,96,0.24167,0.12882,0.10114,-0.67041,0.67609,0.24567,0.19650,-0.15150,-0.36600,0.24167,0.12882,0.10114,-0.67041,0.67609,0.24567,0.19353,-0.15025,-0.36829,-0.03499,-0.01773,0.02869
06/13/24 12:27:49.402557,0.00000,279.26999,0.12307,-0.75402,0.76400,0.29400,0.04000,0.16700,0.07500,217.26010,100.00000,0.06614,96,0.52379,0.15118,-0.13414,-0.69470,0.82758,0.22681,0.19050,-0.15450,-0.37050,0.52379,0.15118,-0.13414,-0.69470,0.82758,0.22681,0.19214,-0.15292,-0.36994,-0.12085,0.09520,0.06981
06/13/24 12:27:49.446957,0.00000,279.26999,0.12307,-0.75402,0.76400,0.29400,0.04000,0.16700,0.07500,217.26010,100.00000,0.06614,96,0.29064,-0.03939,-0.07239,-0.66913,0.46582,0.12244,0.19800,-0.15300,-0.36300,0.29064,-0.03939,-0.07239,-0.66913,0.46582,0.12244,0.19574,-0.15439,-0.36768,0.12098,-0.19049,0.09879
06/13/24 12:27:49.490665,0.00000,279.26999,0.12307,-0.75402,0.76400,0.29400,0.04000,0.16700,0.07500,217.26010,100.00000,0.06614,96,0.92941,0.07665,0.86554,-0.66364,0.79297,0.20483,0.18900,-0.16500,-0.35550,0.92941,0.07665,0.86554,-0.66364,0.79297,0.20483,0.19246,-0.15957,-0.36099,-0.10352,0.04741,0.05811
06/13/24 12:27:49.535038,0.00000,279.26999,0.12307,-0.75402,0.76400,0.29400,0.04000,0.16700,0.07500,217.26010,100.00000,0.06614,96,0.47908,0.06068,0.51847,-0.64502,0.73340,0.17468,0.18300,-0.16350,-0.35250,0.47908,0.06068,0.51847,-0.64502,0.73340,0.17468,0.18578,-0.16232,-0.35933,-0.03259,-0.01084,0.07033
06/13/24 12:27:49.579254,0.00000,279.26999,0.12307,-0.75402,0.76400,0.29400,0.04000,0.16700,0.07500,217.26010,100.00000,0.06614,96,0.67603,0.02662,0.65900,-0.63623,0.74207,0.07611,0.18150,-0.16050,-0.34500,0.67603,0.02662,0.65900,-0.63623,0.74207,0.07611,0.18432,-0.16299,-0.35223,-0.01590,-0.03205,0.15511
06/13/24 12:27:49.622910,0.00000,279.26999,0.12307,-0.75402,0.76400,0.29400,0.04000,0.16700,0.07500,217.26010,100.00000,0.06614,96,0.66539,0.14692,0.29809,-0.61584,0.85968,0.28180,0.17400,-0.16950,-0.33600,0.66539,0.14692,0.29809,-0.61584,0.85968,0.28180,0.17507,-0.16989,-0.33658,-0.07916,0.09024,-0.05316
06/13/24 12:27:49.667313,0.00000,279.26999,0.12307,-0.75402,0.76400,0.29400,0.04000,0.16700,0.07500,217.26010,100.00000,0.06614,96,0.05110,-0.04471,0.33642,-0.59662,0.73193,0.05450,0.17850,-0.16950,-0.32700,0.05110,-0.04471,0.33642,-0.59662,0.73193,0.05450,0.17949,-0.16894,-0.32986,-0.00822,-0.06533,0.14480
06/13/24 12:27:49.710938,0.00000,279.26999,0.12307,-0.75402,0.76400,0.29400,0.04000,0.16700,0.07500,217.26010,100.00000,0.06614,96,0.04791,-0.18950,0.82295,-0.65430,0.89923,0.15015,0.16800,-0.16950,-0.32700,0.04791,-0.18950,0.82295,-0.65430,0.89923,0.15015,0.17406,-0.17077,-0.32716,-0.04870,0.11765,0.08804
06/13/24 12:27:49.755196,0.00000,279.26999,0.12307,-0.75402,0.76400,0.29400,0.04000,0.16700,0.07500,217.26010,100.00000,0.06614,96,0.03513,0.00319,0.19057,-0.61938,0.82568,0.17273,0.16500,-0.17700,-0.32250,0.03513,0.00319,0.19057,-0.61938,0.82568,0.17273,0.16864,-0.17786,-0.32530,-0.00388,0.04480,0.06005
06/13/24 12:27:49.799488,0.00000,279.26999,0.12307,-0.75402,0.76400,0.29400,0.04000,0.16700,0.07500,217.26010,100.00000,0.06614,96,0.18418,-0.06601,0.01916,-0.56403,0.71582,0.07483,0.16950,-0.18000,-0.32550,0.18418,-0.06601,0.01916,-0.56403,0.71582,0.07483,0.16794,-0.18010,-0.32529,0.02011,-0.09553,0.13284
06/13/24 12:27:49.843048,0.00000,279.26999,0.12307,-0.75402,0.76400,0.29400,0.04000,0.16700,0.07500,217.26010,100.00000,0.06614,96,0.03087,0.04152,0.35558,-0.55341,0.81232,0.08148,0.16500,-0.18300,-0.32400,0.03087,0.04152,0.35558,-0.55341,0.81232,0.08148,0.16540,-0.18102,-0.32552,-0.03403,-0.02439,0.14064
06/13/24 12:27:49.887352,0.00000,279.26999,0.12307,-0.75402,0.76400,0.29400,0.04000,0.16700,0.07500,217.26010,100.00000,0.06614,96,-0.03300,-0.08198,0.15969,-0.51819,0.72797,0.13202,0.16050,-0.18300,-0.33000,-0.03300,-0.08198,0.15969,-0.51819,0.72797,0.13202,0.16393,-0.18108,-0.32730,-0.00398,-0.09991,0.07552
06/13/24 12:27:49.930920,0.00000,279.26999,0.12307,-0.75402,0.76400,0.29400,0.04000,0.16700,0.07500,217.26010,100.00000,0.06614,96,-0.02342,0.05004,-0.15224,-0.50916,0.85895,0.11792,0.16350,-0.18450,-0.33000,-0.02342,0.05004,-0.15224,-0.50916,0.85895,0.11792,0.16414,-0.18456,-0.32818,-0.08135,-0.00457,0.11588
06/13/24 12:27:49.975071,0.00000,279.26999,0.12307,-0.75402,0.76400,0.29400,0.04000,0.16700,0.07500,217.26010,100.00000,0.06614,96,-0.15969,0.05536,-0.13840,-0.52679,0.75549,0.04608,0.16500,-0.18150,-0.33150,-0.15969,0.05536,-0.13840,-0.52679,0.75549,0.04608,0.16545,-0.18168,-0.32960,-0.01743,-0.09325,0.16703
06/13/24 12:27:50.021458,0.00000,279.26999,0.12307,-0.75402,0.76400,0.29400,0.04000,0.16700,0.07500,217.26010,100.00000,0.06614,96,-0.20654,-0.19589,-0.17673,-0.60046,0.81555,0.05432,0.16500,-0.18000,-0.32250,-0.20654,-0.19589,-0.17673,-0.60046,0.81555,0.05432,0.16350,-0.18023,-0.32687,0.00148,-0.00348,0.18864
06/13/24 12:27:50.065125,0.00000,279.26999,0.12307,-0.75402,0.76400,0.29400,0.04000,0.16700,0.07500,217.26010,100.00000,0.06614,96,-0.25019,-0.13521,0.71968,-0.53760,0.83258,0.14447,0.15450,-0.17850,-0.33000,-0.25019,-0.13521,0.71968,-0.53760,0.83258,0.14447,0.16326,-0.17995,-0.32659,-0.04518,-0.00502,0.10506
06/13/24 12:27:50.109512,0.00000,279.26999,0.12307,-0.75402,0.76400,0.29400,0.04000,0.16700,0.07500,217.26010,100.00000,0.06614,96,-0.53337,0.76546,0.18099,-0.22528,0.78314,-0.05664,0.15600,-0.19650,-0.32250,-0.53337,0.76546,0.18099,-0.22528,0.78314,-0.05664,0.15495,-0.19441,-0.32253,-0.21169,-0.24391,0.22535
06/13/24 12:27:50.153126,0.00000,279.26999,0.12307,-0.75402,0.76400,0.29400,0.04000,0.16700,0.07500,217.26010,100.00000,0.06614,96,-0.01490,-0.20547,0.24593,-0.52985,0.80231,0.13617,0.16050,-0.20100,-0.31200,-0.01490,-0.20547,0.24593,-0.52985,0.80231,0.13617,0.16084,-0.19939,-0.31179,0.03035,-0.03100,0.05555
06/13/24 12:27:50.197273,0.00000,279.26999,0.12307,-0.75402,0.76400,0.29400,0.04000,0.16700,0.07500,217.26010,100.00000,0.06614,96,0.04684,0.12137,0.32684,-0.43701,0.90778,0.06964,0.16350,-0.20100,-0.31650,0.04684,0.12137,0.32684,-0.43701,0.90778,0.06964,0.16195,-0.20064,-0.31434,-0.08513,-0.00138,0.12406
06/13/24 12:27:50.241650,0.00000,279.26999,0.12307,-0.75402,0.76400,0.29400,0.04000,0.16700,0.07500,217.26010,100.00000,0.06614,96,0.25870,0.07665,-0.05110,-0.44922,0.68549,0.15936,0.16050,-0.19950,-0.30900,0.25870,0.07665,-0.05110,-0.44922,0.68549,0.15936,0.15821,-0.20084,-0.30742,0.03016,-0.16566,-0.00667
06/13/24 12:27:50.285198,0.00000,279.26999,0.12307,-0.75402,0.76400,0.29400,0.04000,0.16700,0.07500,217.26010,100.00000,0.06614,96,-0.04897,0.14585,0.49398,-0.48163,0.98230,0.05096,0.15750,-0.21150,-0.30750,-0.04897,0.14585,0.49398,-0.48163,0.98230,0.05096,0.15822,-0.20548,-0.30830,-0.05332,0.08333,0.15176
06/13/24 12:27:50.329346,0.00000,279.26999,0.12307,-0.75402,0.76400,0.29400,0.04000,0.16700,0.07500,217.26010,100.00000,0.06614,96,-0.36942,-0.14585,-0.93367,-0.49371,0.86505,-0.00995,0.15750,-0.21300,-0.31200,-0.36942,-0.14585,-0.93367,-0.49371,0.86505,-0.00995,0.15465,-0.21228,-0.30930,0.01306,-0.02371,0.19713
06/13/24 12:27:50.373127,0.00000,279.26999,0.12307,-0.75402,0.76400,0.29400,0.04000,0.16700,0.07500,217.26010,100.00000,0.06614,96,0.33216,-0.04365,0.42265,-0.50616,0.81464,0.21582,0.15450,-0.19650,-0.31350,0.33216,-0.04365,0.42265,-0.50616,0.81464,0.21582,0.15625,-0.20983,-0.30926,0.02527,-0.01781,-0.03296
06/13/24 12:27:50.417286,0.00000,279.26999,0.12307,-0.75402,0.76400,0.29400,0.04000,0.16700,0.07500,217.26010,100.00000,0.06614,96,0.44608,0.15224,0.11817,-0.42017,0.89258,0.00983,0.15300,-0.20400,-0.30750,0.44608,0.15224,0.11817,-0.42017,0.89258,0.00983,0.15404,-0.20620,-0.30990,-0.06113,-0.02858,0.16105
06/13/24 12:27:50.461578,0.00000,279.26999,0.12307,-0.75402,0.76400,0.29400,0.04000,0.16700,0.07500,217.26010,100.00000,0.06614,96,0.42691,0.10114,0.27041,-0.48871,0.99823,0.05902,0.15900,-0.21900,-0.30600,0.42691,0.10114,0.27041,-0.48871,0.99823,0.05902,0.15520,-0.21160,-0.30966,-0.04699,0.10569,0.11845
06/13/24 12:27:50.505146,0.00000,279.26999,0.12307,-0.75402,0.76400,0.29400,0.04000,0.16700,0.07500,217.26010,100.00000,0.06614,96,-1.36591,0.49611,-2.60619,-0.50940,1.21216,0.06189,0.16350,-0.21150,-0.30150,-1.36591,0.49611,-2.60619,-0.50940,1.21216,0.06189,0.16088,-0.21836,-0.30181,-0.20920,0.28932,0.16286
06/13/24 12:27:50.549454,0.00000,279.26999,0.12307,-0.75402,0.76400,0.29400,0.04000,0.16700,0.07500,217.26010,100.00000,0.06614,96,-1.61396,0.51102,-1.46598,-0.43201,0.79370,-0.11389,0.18300,-0.19200,-0.31050,-1.61396,0.51102,-1.46598,-0.43201,0.79370,-0.11389,0.18199,-0.19283,-0.30941,-0.08615,-0.15988,0.34109
06/13/24 12:27:50.593861,0.00000,279.26999,0.12307,-0.75402,0.76400,0.29400,0.04000,0.16700,0.07500,217.26010,100.00000,0.06614,96,0.90599,-0.21292,-1.61822,-0.68506,0.57050,0.20471,0.20400,-0.18450,-0.31650,0.90599,-0.21292,-1.61822,-0.68506,0.57050,0.20471,0.20419,-0.18664,-0.31610,0.15149,-0.09802,-0.01253
06/13/24 12:27:50.637451,0.00000,279.26999,0.12307,-0.75402,0.76400,0.29400,0.04000,0.16700,0.07500,217.26010,100.00000,0.06614,96,-2.21441,-0.17673,1.42553,-0.68872,0.81177,0.13727,0.19350,-0.16500,-0.31650,-2.21441,-0.17673,1.42553,-0.68872,0.81177,0.13727,0.19469,-0.16816,-0.31842,0.01000,0.06390,0.14199
06/13/24 12:27:50.681603,0.00000,279.26999,0.12307,-0.75402,0.76400,0.29400,0.04000,0.16700,0.07500,217.26010,100.00000,0.06614,96,-1.49153,-0.59725,-0.76014,-0.61914,0.81012,-0.01001,0.19050,-0.16650,-0.33450,-1.49153,-0.59725,-0.76014,-0.61914,0.81012,-0.01001,0.19144,-0.16628,-0.33332,0.01995,-0.03383,0.32534
06/13/24 12:27:50.725441,0.00000,279.26999,0.12307,-0.75402,0.76400,0.29400,0.04000,0.16700,0.07500,217.26010,100.00000,0.06614,96,-0.76653,-0.47588,-0.85063,-0.81183,1.37897,0.31946,0.18300,-0.15900,-0.35850,-0.76653,-0.47588,-0.85063,-0.81183,1.37897,0.31946,0.18758,-0.16144,-0.35134,-0.24868,0.58537,0.29571
06/13/24 12:27:50.769653,0.00000,279.26999,0.12307,-0.75402,0.76400,0.29400,0.04000,0.16700,0.07500,217.26010,100.00000,0.06614,96,-2.03662,-0.39284,-1.98445,-0.41058,0.72803,0.19427,0.18000,-0.14400,-0.38700,-2.03662,-0.39284,-1.98445,-0.41058,0.72803,0.19427,0.18050,-0.14366,-0.38530,-0.17542,-0.18228,0.19209
06/13/24 12:27:50.814121,0.00000,279.26999,0.12307,-0.75402,0.76400,0.29400,0.04000,0.16700,0.07500,217.26010,100.00000,0.06614,96,-1.90460,-0.16715,-0.88896,-0.66089,1.13336,0.14771,0.19350,-0.12150,-0.42150,-1.90460,-0.16715,-0.88896,-0.66089,1.13336,0.14771,0.19310,-0.12475,-0.41676,-0.28619,0.16714,0.54678
06/13/24 12:27:50.857750,0.00000,279.26999,0.12307,-0.75402,0.76400,0.29400,0.04000,0.16700,0.07500,217.26010,100.00000,0.06614,96,-3.01713,0.13627,0.53337,-1.16919,0.66235,0.29474,0.20400,-0.10650,-0.43500,-3.01713,0.13627,0.53337,-1.16919,0.66235,0.29474,0.20325,-0.11074,-0.43339,0.29729,0.30003,0.33783
06/13/24 12:27:50.902042,0.00000,279.26999,0.12307,-0.75402,0.76400,0.29400,0.04000,0.16700,0.07500,217.26010,100.00000,0.06614,96,-3.03523,1.87373,-0.98797,-1.40961,0.10217,0.16882,0.23250,-0.12300,-0.44700,-3.03523,1.87373,-0.98797,-1.40961,0.10217,0.16882,0.23118,-0.12113,-0.44618,0.84172,0.14433,0.08912
06/13/24 12:27:50.945923,0.00000,279.26999,0.12307,-0.75402,0.76400,0.29400,0.04000,0.16700,0.07500,217.26010,100.00000,0.06614,96,5.69784,-0.86128,5.70955,-0.65466,1.07813,1.85742,0.28350,-0.19500,-0.44400,5.69784,-0.86128,5.70955,-0.65466,1.07813,1.85742,0.28156,-0.18016,-0.44531,-0.75664,0.98048,-0.73901
06/13/24 12:27:50.990257,0.00000,279.26999,0.12307,-0.75402,0.76400,0.29400,0.04000,0.16700,0.07500,217.26010,100.00000,0.06614,96,7.17234,-2.90641,0.66219,0.94220,-0.60486,0.32672,0.22050,-0.43200,-0.36600,7.17234,-2.90641,0.66219,0.94220,-0.60486,0.32672,0.22861,-0.41610,-0.37231,-0.78084,-1.77986,-0.37741
06/13/24 12:27:51.034523,0.00000,279.26999,0.12307,-0.75402,0.76400,0.29400,0.04000,0.16700,0.07500,217.26010,100.00000,0.06614,96,-2.09198,-2.60299,6.64961,-2.00000,0.28424,-0.60272,0.26550,-0.36450,-0.28200,-2.09198,-2.60299,6.64961,-2.00000,0.28424,-0.60272,0.25697,-0.37615,-0.28459,1.41027,0.43018,0.64015
06/13/24 12:27:51.078407,0.00000,279.26999,0.12307,-0.75402,0.76400,0.29400,0.04000,0.16700,0.07500,217.26010,100.00000,0.06614,96,-4.26274,1.52454,-0.78356,-0.49988,0.89941,0.62085,0.19500,-0.38700,-0.39300,-4.26274,1.52454,-0.78356,-0.49988,0.89941,0.62085,0.20426,-0.39015,-0.37710,0.01381,0.18690,-0.18806
06/13/24 12:27:51.122707,0.00000,279.26999,0.12307,-0.75402,0.76400,0.29400,0.04000,0.16700,0.07500,217.26010,100.00000,0.06614,96,-3.05333,0.53337,-0.99648,-0.73792,1.08014,0.19409,0.22200,-0.35250,-0.41100,-3.05333,0.53337,-0.99648,-0.73792,1.08014,0.19409,0.21942,-0.35380,-0.41137,0.18138,0.25634,0.37096
06/13/24 12:27:51.166645,0.00000,279.26999,0.12307,-0.75402,0.76400,0.29400,0.04000,0.16700,0.07500,217.26010,100.00000,0.06614,96,-2.07814,0.61109,-1.50750,-0.39496,0.68384,0.35321,0.24750,-0.30750,-0.44400,-2.07814,0.61109,-1.50750,-0.39496,0.68384,0.35321,0.23753,-0.32833,-0.42775,-0.03916,-0.14396,0.11851
06/13/24 12:27:51.210979,0.00000,279.26999,0.12307,-0.75402,0.76400,0.29400,0.04000,0.16700,0.07500,217.26010,100.00000,0.06614,96,-4.29468,0.06388,-3.80176,-0.82831,0.64404,0.59418,0.28800,-0.24300,-0.45600,-4.29468,0.06388,-3.80176,-0.82831,0.64404,0.59418,0.28128,-0.25166,-0.45282,0.12649,0.19880,0.02865
06/13/24 12:27:51.255299,0.00000,279.26999,0.12307,-0.75402,0.76400,0.29400,0.04000,0.16700,0.07500,217.26010,100.00000,0.06614,96,-4.95580,0.80272,-3.39294,-0.58759,0.28979,0.89935,0.31650,-0.11700,-0.47100,-4.95580,0.80272,-3.39294,-0.58759,0.28979,0.89935,0.31479,-0.12799,-0.47006,-0.18146,0.08409,-0.17291
06/13/24 12:27:51.299252,0.00000,279.26999,0.12307,-0.75402,0.76400,0.29400,0.04000,0.16700,0.07500,217.26010,100.00000,0.06614,96,-1.01245,3.12572,-2.37091,-0.96570,-0.01111,0.50195,0.35400,0.01650,-0.43200,-1.01245,3.12572,-2.37091,-0.96570,-0.01111,0.50195,0.34849,0.00494,-0.43708,0.27042,0.05365,-0.03661
06/13/24 12:27:51.343651,0.00000,279.26999,0.12307,-0.75402,0.76400,0.29400,0.04000,0.16700,0.07500,217.26010,100.00000,0.06614,96,1.92377,6.61022,1.12424,-0.48163,-0.01611,0.28766,0.40050,0.03900,-0.33300,1.92377,6.61022,1.12424,-0.48163,-0.01611,0.28766,0.39737,0.03995,-0.33978,-0.00494,-0.45311,-0.12593
06/13/24 12:27:51.387363,0.00000,279.26999,0.12307,-0.75402,0.76400,0.29400,0.04000,0.16700,0.07500,217.26010,100.00000,0.06614,96,1.99829,3.70381,-2.03023,-1.19672,0.05957,0.07794,0.42750,0.06000,-0.22500,1.99829,3.70381,-2.03023,-1.19672,0.05957,0.07794,0.42690,0.05745,-0.23014,0.17532,0.18713,0.04163
06/13/24 12:27:51.431778,0.00000,279.26999,0.12307,-0.75402,0.76400,0.29400,0.04000,0.16700,0.07500,217.26010,100.00000,0.06614,96,0.47908,1.60758,-3.63355,-1.34222,0.09357,0.21753,0.40200,0.15750,-0.13350,0.47908,1.60758,-3.63355,-1.34222,0.09357,0.21753,0.41056,0.13554,-0.15295,-0.17409,0.35136,0.03408
06/13/24 12:27:51.475937,0.00000,279.26999,0.12307,-0.75402,0.76400,0.29400,0.04000,0.16700,0.07500,217.26010,100.00000,0.06614,96,0.06601,0.51102,-1.39678,-0.99298,0.27454,0.14624,0.35400,0.21750,-0.09300,0.06601,0.51102,-1.39678,-0.99298,0.27454,0.14624,0.35519,0.21522,-0.09520,-0.34958,-0.04702,0.22891
06/13/24 12:27:51.519630,0.00000,279.26999,0.12307,-0.75402,0.76400,0.29400,0.04000,0.16700,0.07500,217.26010,100.00000,0.06614,96,1.48621,-0.08304,-0.52166,-1.00195,0.08899,0.14758,0.33000,0.23550,-0.08850,1.48621,-0.08304,-0.52166,-1.00195,0.08899,0.14758,0.33265,0.23484,-0.08839,-0.24050,-0.01611,0.08791
06/13/24 12:27:51.563801,0.00000,279.26999,0.12307,-0.75402,0.76400,0.29400,0.04000,0.16700,0.07500,217.26010,100.00000,0.06614,96,1.14447,-0.46098,-0.23741,-0.96545,0.10223,0.13342,0.31650,0.23250,-0.09900,1.14447,-0.46098,-0.23741,-0.96545,0.10223,0.13342,0.31739,0.23293,-0.09580,-0.22108,-0.04998,0.09455
06/13/24 12:27:51.607483,0.00000,279.26999,0.12307,-0.75402,0.76400,0.29400,0.04000,0.16700,0.07500,217.26010,100.00000,0.06614,96,-0.90919,-1.18492,0.39817,-1.04761,0.04224,0.03998,0.31350,0.22650,-0.11550,-0.90919,-1.18492,0.39817,-1.04761,0.04224,0.03998,0.31295,0.22687,-0.11542,-0.07658,0.03812,0.13155
06/13/24 12:27:51.651886,0.00000,279.26999,0.12307,-0.75402,0.76400,0.29400,0.04000,0.16700,0.07500,217.26010,100.00000,0.06614,96,-3.32907,-2.56893,0.83253,-0.98572,-0.08429,-0.06415,0.32400,0.20700,-0.11700,-3.32907,-2.56893,0.83253,-0.98572,-0.08429,-0.06415,0.31931,0.21900,-0.11680,0.16340,-0.02899,0.11530
06/13/24 12:27:51.696209,0.00000,279.26999,0.12307,-0.75402,0.76400,0.29400,0.04000,0.16700,0.07500,217.26010,100.00000,0.06614,96,-3.54731,-2.99797,0.63345,-0.85004,-0.08405,-0.18738,0.33300,0.18900,-0.12000,-3.54731,-2.99797,0.63345,-0.85004,-0.08405,-0.18738,0.33274,0.18952,-0.12029,0.35409,-0.21526,0.15341
06/13/24 12:27:51.739925,0.00000,279.26999,0.12307,-0.75402,0.76400,0.29400,0.04000,0.16700,0.07500,217.26010,100.00000,0.06614,96,-2.62642,-2.30703,1.42872,-0.43427,0.08282,-0.48779,0.34650,0.16800,-0.14250,-2.62642,-2.30703,1.42872,-0.43427,0.08282,-0.48779,0.34663,0.16887,-0.14246,0.53711,-0.74858,0.28582
06/13/24 12:27:51.784435,0.00000,279.26999,0.12307,-0.75402,0.76400,0.29400,0.04000,0.16700,0.07500,217.26010,100.00000,0.06614,96,-2.31661,-1.58841,-1.02842,-0.06586,-0.75946,-0.23334,0.36000,0.16800,-0.15750,-2.31661,-1.58841,-1.02842,-0.06586,-0.75946,-0.23334,0.36085,0.16591,-0.15605,0.40914,-0.94190,-0.68176
06/13/24 12:27:51.828751,0.00000,279.26999,0.12307,-0.75402,0.76400,0.29400,0.04000,0.16700,0.07500,217.26010,100.00000,0.06614,96,0.10646,1.75023,-2.42094,-0.09131,-1.07977,-0.12671,0.35700,0.18450,-0.15600,0.10646,1.75023,-2.42094,-0.09131,-1.07977,-0.12671,0.35656,0.18466,-0.15553,0.41099,-0.74681,-0.97841
06/13/24 12:27:51.872719,0.00000,279.26999,0.12307,-0.75402,0.76400,0.29400,0.04000,0.16700,0.07500,217.26010,100.00000,0.06614,96,-5.73936,1.43617,-11.20086,-0.23315,-2.00000,0.33740,0.25650,0.27750,-0.07500,-5.73936,1.43617,-11.20086,-0.23315,-2.00000,0.33740,0.27950,0.26584,-0.08789,0.05818,0.24566,-1.61652
06/13/24 12:27:51.917034,0.00000,279.26999,0.12307,-0.75402,0.76400,0.29400,0.04000,0.16700,0.07500,217.26010,100.00000,0.06614,96,-5.06972,0.05749,-9.76788,0.12524,-2.00000,0.02435,-0.00600,0.33750,0.00000,-5.06972,0.05749,-9.76788,0.12524,-2.00000,0.02435,0.00986,0.33590,-0.00286,-0.06022,0.76616,-0.94515
06/13/24 12:27:51.960712,0.00000,279.26999,0.12307,-0.75402,0.76400,0.29400,0.04000,0.16700,0.07500,217.26010,100.00000,0.06614,96,-6.05662,0.60470,-7.30968,0.02490,-1.66388,0.13538,-0.13050,0.28350,0.07500,-6.05662,0.60470,-7.30968,0.02490,-1.66388,0.13538,-0.12749,0.28634,0.07065,-0.49747,0.58564,-0.16039
06/13/24 12:27:52.005150,0.00000,279.26999,0.12307,-0.75402,0.76400,0.29400,0.04000,0.16700,0.07500,217.26010,100.00000,0.06614,96,-5.52963,4.31384,-7.43530,-1.45544,-1.34021,0.90845,-0.20550,0.21150,0.16350,-5.52963,4.31384,-7.43530,-1.45544,-1.34021,0.90845,-0.19794,0.22088,0.15681,-1.18503,-0.49222,1.75432
06/13/24 12:27:52.049492,0.00000,279.26999,0.12307,-0.75402,0.76400,0.29400,0.04000,0.16700,0.07500,217.26010,100.00000,0.06614,96,-0.31619,2.81698,-9.09398,-0.57758,-1.36719,-0.21039,-0.31950,0.12900,0.18000,-0.31619,2.81698,-9.09398,-0.57758,-1.36719,-0.21039,-0.31315,0.13363,0.18091,-0.37741,-0.30795,1.27502
06/13/24 12:27:52.093380,0.00000,279.26999,0.12307,-0.75402,0.76400,0.29400,0.04000,0.16700,0.07500,217.26010,100.00000,0.06614,96,1.12424,0.07239,-3.39188,0.62000,-0.14911,0.03625,-0.41250,0.02700,0.15450,1.12424,0.07239,-3.39188,0.62000,-0.14911,0.03625,-0.40907,0.03617,0.15729,-0.22298,-0.46724,-0.27275
06/13/24 12:27:52.137592,0.00000,279.26999,0.12307,-0.75402,0.76400,0.29400,0.04000,0.16700,0.07500,217.26010,100.00000,0.06614,96,1.45321,1.97274,-1.55860,1.00964,-0.33386,0.14459,-0.43200,0.02700,0.14550,1.45321,1.97274,-1.55860,1.00964,-0.33386,0.14459,-0.42830,0.02679,0.14743,-0.39231,-0.04575,-0.29540
06/13/24 12:27:52.181229,0.00000,279.26999,0.12307,-0.75402,0.76400,0.29400,0.04000,0.16700,0.07500,217.26010,100.00000,0.06614,96,0.38433,3.35994,-5.20173,1.05200,-0.57355,0.07922,-0.46650,-0.00150,0.10500,0.38433,3.35994,-5.20173,1.05200,-0.57355,0.07922,-0.46423,0.00099,0.10574,-0.33390,0.14728,0.11914
06/13/24 12:27:52.225685,0.00000,279.26999,0.12307,-0.75402,0.76400,0.29400,0.04000,0.16700,0.07500,217.26010,100.00000,0.06614,96,0.34920,5.51366,-2.64132,1.19543,-0.65314,0.09808,-0.49650,-0.08100,0.02850,0.34920,5.51366,-2.64132,1.19543,-0.65314,0.09808,-0.49369,-0.07416,0.03834,-0.18849,0.28569,0.42040
06/13/24 12:27:52.269959,0.00000,279.26999,0.12307,-0.75402,0.76400,0.29400,0.04000,0.16700,0.07500,217.26010,100.00000,0.06614,96,1.03800,1.66826,-3.56967,1.27350,-0.27979,0.37616,-0.51900,-0.12600,-0.04650,1.03800,1.66826,-3.56967,1.27350,-0.27979,0.37616,-0.51810,-0.12384,-0.04308,-0.19131,0.32990,0.19063
06/13/24 12:27:52.313660,0.00000,279.26999,0.12307,-0.75402,0.76400,0.29400,0.04000,0.16700,0.07500,217.26010,100.00000,0.06614,96,1.22857,3.06078,-2.97561,1.68988,0.01312,0.32001,-0.50700,-0.18450,-0.06750,1.22857,3.06078,-2.97561,1.68988,0.01312,0.32001,-0.50717,-0.18191,-0.06613,0.07476,0.70086,0.24447
06/13/24 12:27:52.358055,0.00000,279.26999,0.12307,-0.75402,0.76400,0.29400,0.04000,0.16700,0.07500,217.26010,100.00000,0.06614,96,3.09059,2.44862,3.20344,1.06335,-0.15955,0.20898,-0.49950,-0.20250,-0.11400,3.09059,2.44862,3.20344,1.06335,-0.15955,0.20898,-0.49925,-0.20583,-0.10886,0.18813,0.03314,0.31158
06/13/24 12:27:52.401756,0.00000,279.26999,0.12307,-0.75402,0.76400,0.29400,0.04000,0.16700,0.07500,217.26010,100.00000,0.06614,96,2.87128,-0.56212,2.24848,0.92987,-0.19818,0.10229,-0.52350,-0.14550,-0.12900,2.87128,-0.56212,2.24848,0.92987,-0.19818,0.10229,-0.52293,-0.14833,-0.12852,0.27526,-0.10395,0.18900
06/13/24 12:27:52.446148,0.00000,279.26999,0.12307,-0.75402,0.76400,0.29400,0.04000,0.16700,0.07500,217.26010,100.00000,0.06614,96,1.62461,-0.22251,1.60864,0.42090,-0.24005,0.01208,-0.53250,-0.10800,-0.10350,1.62461,-0.22251,1.60864,0.42090,-0.24005,0.01208,-0.53136,-0.10948,-0.10580,0.18262,-0.59665,0.19720
06/13/24 12:27:52.490337,0.00000,279.26999,0.12307,-0.75402,0.76400,0.29400,0.04000,0.16700,0.07500,217.26010,100.00000,0.06614,96,1.58309,1.13808,0.78675,0.75702,-0.36450,0.02991,-0.52950,-0.07950,-0.10950,1.58309,1.13808,0.78675,0.75702,-0.36450,0.02991,-0.52871,-0.08080,-0.10694,0.34991,-0.26957,0.22555
06/13/24 12:27:52.533985,0.00000,279.26999,0.12307,-0.75402,0.76400,0.29400,0.04000,0.16700,0.07500,217.26010,100.00000,0.06614,96,0.95071,-0.31619,0.57277,0.70972,-0.12561,0.07703,-0.52800,-0.06750,-0.12000,0.95071,-0.31619,0.57277,0.70972,-0.12561,0.07703,-0.52780,-0.06705,-0.11982,0.22610,-0.31138,0.00945
06/13/24 12:27:52.578346,0.00000,279.26999,0.12307,-0.75402,0.76400,0.29400,0.04000,0.16700,0.07500,217.26010,100.00000,0.06614,96,-0.32258,-0.72926,0.60257,1.02728,-0.25702,0.03082,-0.52800,-0.05850,-0.11700,-0.32258,-0.72926,0.60257,1.02728,-0.25702,0.03082,-0.52713,-0.06010,-0.11681,0.33537,0.00484,-0.01214
06/13/24 12:27:52.621994,0.00000,279.26999,0.12307,-0.75402,0.76400,0.29400,0.04000,0.16700,0.07500,217.26010,100.00000,0.06614,96,-1.35313,-0.72926,0.18844,1.41052,-0.20990,0.23413,-0.52650,-0.04050,-0.10200,-1.35313,-0.72926,0.18844,1.41052,-0.20990,0.23413,-0.52646,-0.04106,-0.10332,0.18541,0.42980,-0.09877
06/13/24 12:27:52.666222,0.00000,279.26999,0.12307,-0.75402,0.76400,0.29400,0.04000,0.16700,0.07500,217.26010,100.00000,0.06614,96,-1.09869,-2.19631,0.48547,1.27014,-0.14374,0.23541,-0.52350,-0.04200,-0.09150,-1.09869,-2.19631,0.48547,1.27014,-0.14374,0.23541,-0.52380,-0.04244,-0.09293,0.02255,0.29365,-0.12372
06/13/24 12:27:52.710648,0.00000,279.26999,0.12307,-0.75402,0.76400,0.29400,0.04000,0.16700,0.07500,217.26010,100.00000,0.06614,96,-0.70797,-1.91312,2.60832,1.04309,-0.12616,0.23053,-0.51600,-0.02400,-0.04500,-0.70797,-1.91312,2.60832,1.04309,-0.12616,0.23053,-0.51765,-0.02549,-0.05001,-0.13578,0.05669,-0.14853
06/13/24 12:27:52.754322,0.00000,279.26999,0.12307,-0.75402,0.76400,0.29400,0.04000,0.16700,0.07500,217.26010,100.00000,0.06614,96,-0.24273,-2.66794,1.84499,1.06433,-0.22998,0.30511,-0.51300,0.02100,-0.01200,-0.24273,-2.66794,1.84499,1.06433,-0.22998,0.30511,-0.51341,0.01855,-0.01364,-0.31389,0.08122,-0.10597
06/13/24 12:27:52.798809,0.00000,279.26999,0.12307,-0.75402,0.76400,0.29400,0.04000,0.16700,0.07500,217.26010,100.00000,0.06614,96,1.82902,-2.86063,1.29990,0.91345,-0.24701,0.82935,-0.48000,0.04350,0.04500,1.82902,-2.86063,1.29990,0.91345,-0.24701,0.82935,-0.48399,0.03823,0.03891,-0.88460,-0.11297,0.11783
06/13/24 12:27:52.842552,0.00000,279.26999,0.12307,-0.75402,0.76400,0.29400,0.04000,0.16700,0.07500,217.26010,100.00000,0.06614,96,1.33929,1.15405,1.13382,1.23676,-0.08423,1.19592,-0.45450,0.08400,0.05550,1.33929,1.15405,1.13382,1.23676,-0.08423,1.19592,-0.45586,0.07891,0.05771,-1.34354,0.07524,0.07505
06/13/24 12:27:52.886848,0.00000,279.26999,0.12307,-0.75402,0.76400,0.29400,0.04000,0.16700,0.07500,217.26010,100.00000,0.06614,96,1.95145,1.87586,0.45246,1.00714,-0.27051,0.06781,-0.45750,0.11100,0.03000,1.95145,1.87586,0.45246,1.00714,-0.27051,0.06781,-0.45727,0.11005,0.03127,-0.11474,0.00866,-0.24809
06/13/24 12:27:52.931320,0.00000,279.26999,0.12307,-0.75402,0.76400,0.29400,0.04000,0.16700,0.07500,217.26010,100.00000,0.06614,96,0.15118,2.15585,-1.17747,0.70667,-0.15009,0.06323,-0.46950,0.12900,-0.01050,0.15118,2.15585,-1.17747,0.70667,-0.15009,0.06323,-0.46912,0.12759,-0.00825,-0.04693,-0.31340,-0.22863
06/13/24 12:27:52.975044,0.00000,279.26999,0.12307,-0.75402,0.76400,0.29400,0.04000,0.16700,0.07500,217.26010,100.00000,0.06614,96,-1.44895,1.33290,-0.96987,1.01654,-0.25562,0.14557,-0.48000,0.11100,-0.03750,-1.44895,1.33290,-0.96987,1.01654,-0.25562,0.14557,-0.47991,0.11192,-0.03677,-0.01108,0.02350,-0.26872
06/13/24 12:27:53.019268,0.00000,279.26999,0.12307,-0.75402,0.76400,0.29400,0.04000,0.16700,0.07500,217.26010,100.00000,0.06614,96,-1.32865,0.97093,-0.81230,0.95972,-0.21869,0.19812,-0.49800,0.08400,-0.05100,-1.32865,0.97093,-0.81230,0.95972,-0.21869,0.19812,-0.49693,0.08453,-0.05113,-0.03919,-0.02436,-0.23393
06/13/24 12:27:53.063087,0.00000,279.26999,0.12307,-0.75402,0.76400,0.29400,0.04000,0.16700,0.07500,217.26010,100.00000,0.06614,96,-0.38007,0.28212,0.98584,0.86676,-0.33087,0.14380,-0.49950,0.07050,-0.06000,-0.38007,0.28212,0.98584,0.86676,-0.33087,0.14380,-0.49797,0.07315,-0.05308,0.05776,-0.07267,-0.13472
06/13/24 12:27:53.107334,0.00000,279.26999,0.12307,-0.75402,0.76400,0.29400,0.04000,0.16700,0.07500,217.26010,100.00000,0.06614,96,0.35239,-0.93048,2.74565,0.85016,-0.49774,0.10461,-0.49200,0.10050,-0.04650,0.35239,-0.93048,2.74565,0.85016,-0.49774,0.10461,-0.49494,0.09400,-0.04902,0.10232,-0.01869,-0.08956
06/13/24 12:27:53.151848,0.00000,279.26999,0.12307,-0.75402,0.76400,0.29400,0.04000,0.16700,0.07500,217.26010,100.00000,0.06614,96,1.06249,-2.76588,0.63771,0.77271,-0.78076,0.09119,-0.46350,0.15000,-0.03450,1.06249,-2.76588,0.63771,0.77271,-0.78076,0.09119,-0.46538,0.14470,-0.03639,0.15202,0.08747,0.09627
06/13/24 12:27:53.195683,0.00000,279.26999,0.12307,-0.75402,0.76400,0.29400,0.04000,0.16700,0.07500,217.26010,100.00000,0.06614,96,1.43511,-3.00223,1.73533,0.94922,-0.76929,-0.00159,-0.44850,0.16500,-0.00150,1.43511,-3.00223,1.73533,0.94922,-0.76929,-0.00159,-0.44985,0.16339,-0.00241,0.12166,0.21375,-0.06945
06/13/24 12:27:53.241291,1.00000,246.32001,-0.89121,-2.03217,2.21900,1.36700,0.22300,0.64700,0.04400,216.07207,98.14000,-1.17287,96,1.24348,-2.64664,2.74672,0.95215,-0.91638,-0.03534,-0.42900,0.17850,0.01500,1.24348,-2.64664,2.74672,0.95215,-0.91638,-0.03534,-0.43386,0.17350,0.00985,0.16251,0.31153,-0.03270
06/13/24 12:27:53.285244,1.00000,246.32001,-0.89121,-2.03217,2.21900,1.36700,0.22300,0.64700,0.04400,216.07207,98.14000,-1.17287,96,-0.47163,0.84318,3.12572,0.64569,-0.96643,-0.03790,-0.35700,0.24300,0.03450,-0.47163,0.84318,3.12572,0.64569,-0.96643,-0.03790,-0.36112,0.24121,0.03257,0.11332,0.15691,-0.03239
06/13/24 12:27:53.329578,1.00000,246.32001,-0.89121,-2.03217,2.21900,1.36700,0.22300,0.64700,0.04400,216.07207,98.14000,-1.17287,96,0.61961,1.39359,2.30703,0.28076,-0.93854,0.13379,-0.32700,0.27000,0.02400,0.61961,1.39359,2.30703,0.28076,-0.93854,0.13379,-0.32804,0.26872,0.02513,0.06971,-0.03057,0.18146
06/13/24 12:27:53.373447,1.00000,246.32001,-0.89121,-2.03217,2.21900,1.36700,0.22300,0.64700,0.04400,216.07207,98.14000,-1.17287,96,1.98126,-0.19057,2.52741,0.44800,-0.86493,0.26648,-0.28800,0.30000,-0.00150,1.98126,-0.19057,2.52741,0.44800,-0.86493,0.26648,-0.30752,0.28822,0.01106,-0.13199,0.00022,-0.04424
06/13/24 12:27:53.417767,1.00000,246.32001,-0.89121,-2.03217,2.21900,1.36700,0.22300,0.64700,0.04400,216.07207,98.14000,-1.17287,96,3.24496,-1.15298,-0.24273,1.08563,-1.06561,0.07440,-0.26250,0.32550,-0.03450,3.24496,-1.15298,-0.24273,1.08563,-1.06561,0.07440,-0.26432,0.32383,-0.03154,-0.12915,0.34301,-0.70661
06/13/24 12:27:53.462078,1.00000,246.32001,-0.89121,-2.03217,2.21900,1.36700,0.22300,0.64700,0.04400,216.07207,98.14000,-1.17287,96,3.21409,0.69520,0.67710,0.73566,-0.50061,-0.24231,-0.26550,0.32850,-0.07350,3.21409,0.69520,0.67710,0.73566,-0.50061,-0.24231,-0.26596,0.32900,-0.07108,0.08780,-0.42188,-0.71315
06/13/24 12:27:53.505985,1.00000,246.32001,-0.89121,-2.03217,2.21900,1.36700,0.22300,0.64700,0.04400,216.07207,98.14000,-1.17287,96,1.45853,2.19631,3.95613,0.23846,-0.56488,0.00885,-0.24450,0.34650,-0.14250,1.45853,2.19631,3.95613,0.23846,-0.56488,0.00885,-0.24722,0.34549,-0.13527,0.18038,-0.46893,-0.24791
06/13/24 12:27:53.550201,1.00000,246.32001,-0.89121,-2.03217,2.21900,1.36700,0.22300,0.64700,0.04400,216.07207,98.14000,-1.17287,96,1.88970,-0.03513,3.43553,0.22748,-0.81860,0.49377,-0.17700,0.35550,-0.17400,1.88970,-0.03513,3.43553,0.22748,-0.81860,0.49377,-0.18402,0.35464,-0.17029,-0.04183,-0.03596,-0.18588
06/13/24 12:27:53.594074,1.00000,246.32001,-0.89121,-2.03217,2.21900,1.36700,0.22300,0.64700,0.04400,216.07207,98.14000,-1.17287,96,-0.56318,-1.14872,1.18066,-0.01349,-0.73914,0.60559,-0.13350,0.36000,-0.19350,-0.56318,-1.14872,1.18066,-0.01349,-0.73914,0.60559,-0.13584,0.35940,-0.19571,-0.05150,-0.04828,0.06944
06/13/24 12:27:53.638355,1.00000,246.32001,-0.89121,-2.03217,2.21900,1.36700,0.22300,0.64700,0.04400,216.07207,98.14000,-1.17287,96,3.85712,0.58341,0.63238,0.11536,-1.09290,0.32452,-0.11400,0.35400,-0.21150,3.85712,0.58341,0.63238,0.11536,-1.09290,0.32452,-0.11519,0.35519,-0.20662,0.29277,0.03743,-0.38867
06/13/24 12:27:53.682568,1.00000,246.32001,-0.89121,-2.03217,2.21900,1.36700,0.22300,0.64700,0.04400,216.07207,98.14000,-1.17287,96,1.40210,0.40030,1.13595,0.10266,-0.53802,0.82318,-0.11400,0.34650,-0.26400,1.40210,0.40030,1.13595,0.10266,-0.53802,0.82318,-0.11424,0.34702,-0.26199,-0.28471,-0.05368,-0.03242
06/13/24 12:27:53.726330,1.00000,246.32001,-0.89121,-2.03217,2.21900,1.36700,0.22300,0.64700,0.04400,216.07207,98.14000,-1.17287,96,0.69839,0.26509,0.50995,0.13110,-0.38196,0.61456,-0.09450,0.32700,-0.29400,0.69839,0.26509,0.50995,0.13110,-0.38196,0.61456,-0.09497,0.32731,-0.29099,-0.21459,-0.30386,-0.10055
06/13/24 12:27:53.770516,1.00000,246.32001,-0.89121,-2.03217,2.21900,1.36700,0.22300,0.64700,0.04400,216.07207,98.14000,-1.17287,96,-3.00010,0.45246,-0.11604,0.01379,-0.45337,0.69141,-0.08250,0.32850,-0.29400,-3.00010,0.45246,-0.11604,0.01379,-0.45337,0.69141,-0.08315,0.32834,-0.29497,-0.20611,-0.19919,0.00215
06/13/24 12:27:53.814163,1.00000,246.32001,-0.89121,-2.03217,2.21900,1.36700,0.22300,0.64700,0.04400,216.07207,98.14000,-1.17287,96,-8.17947,-0.95496,-1.64058,-0.08246,-1.01514,0.69464,-0.07950,0.35250,-0.22200,-8.17947,-0.95496,-1.64058,-0.08246,-1.01514,0.69464,-0.08111,0.34784,-0.23327,-0.09666,0.22891,0.01599
06/13/24 12:27:53.858585,1.00000,246.32001,-0.89121,-2.03217,2.21900,1.36700,0.22300,0.64700,0.04400,216.07207,98.14000,-1.17287,96,-4.72265,-1.93654,-0.82402,0.14679,-1.57520,0.74969,-0.10800,0.35550,-0.05700,-4.72265,-1.93654,-0.82402,0.14679,-1.57520,0.74969,-0.10716,0.35942,-0.07367,-0.41726,0.69684,0.10703
06/13/24 12:27:53.902813,1.00000,246.32001,-0.89121,-2.03217,2.21900,1.36700,0.22300,0.64700,0.04400,216.07207,98.14000,-1.17287,96,-0.44820,0.06814,0.26083,0.21918,-2.00000,0.31024,-0.10500,0.36000,-0.00150,-0.44820,0.06814,0.26083,0.21918,-2.00000,0.31024,-0.11456,0.35307,-0.01656,-0.19418,1.01807,-0.18429
06/13/24 12:27:53.946644,1.00000,246.32001,-0.89121,-2.03217,2.21900,1.36700,0.22300,0.64700,0.04400,216.07207,98.14000,-1.17287,96,7.74830,0.73246,1.98445,-0.06116,-0.92358,0.29785,-0.09300,0.36600,-0.03000,7.74830,0.73246,1.98445,-0.06116,-0.92358,0.29785,-0.10146,0.35643,0.00056,-0.01562,-0.02778,0.00307
06/13/24 12:27:53.990940,1.00000,246.32001,-0.89121,-2.03217,2.21900,1.36700,0.22300,0.64700,0.04400,216.07207,98.14000,-1.17287,96,15.98846,1.59054,2.98519,0.20386,-0.70245,-0.17120,-0.05400,0.35550,-0.20400,15.98846,1.59054,2.98519,0.20386,-0.70245,-0.17120,-0.06009,0.36002,-0.17910,0.35793,-0.71911,-0.59775
06/13/24 12:27:54.034637,1.00000,246.32001,-0.89121,-2.03217,2.21900,1.36700,0.22300,0.64700,0.04400,216.07207,98.14000,-1.17287,96,17.06798,1.26264,2.28787,-0.38409,-0.89801,0.39594,0.00750,0.18150,-0.45000,17.06798,1.26264,2.28787,-0.38409,-0.89801,0.39594,0.00441,0.19357,-0.44025,0.87620,-0.58462,-0.41286
06/13/24 12:27:54.079140,1.00000,246.32001,-0.89121,-2.03217,2.21900,1.36700,0.22300,0.64700,0.04400,216.07207,98.14000,-1.17287,96,2.50292,0.27680,0.45672,-0.24207,-0.81970,0.51843,0.03900,-0.10950,-0.55650,2.50292,0.27680,0.45672,-0.24207,-0.81970,0.51843,0.03869,-0.09087,-0.55435,0.83714,-0.83618,-0.52119
06/13/24 12:27:54.123390,1.00000,246.32001,-0.89121,-2.03217,2.21900,1.36700,0.22300,0.64700,0.04400,216.07207,98.14000,-1.17287,96,-7.98252,-1.65655,-1.35420,0.41797,-0.54095,0.44312,0.04950,-0.07500,-0.54900,-7.98252,-1.65655,-1.35420,0.41797,-0.54095,0.44312,0.04919,-0.08002,-0.54847,0.17292,-0.83113,-0.77799
06/13/24 12:27:54.167141,1.00000,246.32001,-0.89121,-2.03217,2.21900,1.36700,0.22300,0.64700,0.04400,216.07207,98.14000,-1.17287,96,-4.84721,-0.63345,1.11679,-0.47351,-0.00665,1.75232,0.01050,0.09750,-0.51750,-4.84721,-0.63345,1.11679,-0.47351,-0.00665,1.75232,0.01576,0.08125,-0.52575,-0.25748,0.79354,0.10855
06/13/24 12:27:54.211540,1.00000,246.32001,-0.89121,-2.03217,2.21900,1.36700,0.22300,0.64700,0.04400,216.07207,98.14000,-1.17287,96,0.85595,0.82402,-3.88373,-0.06244,-0.52551,1.31390,-0.00750,0.15150,-0.49500,0.85595,0.82402,-3.88373,-0.06244,-0.52551,1.31390,-0.00379,0.14965,-0.49717,0.04397,0.35851,-0.39866
06/13/24 12:27:54.255196,1.00000,246.32001,-0.89121,-2.03217,2.21900,1.36700,0.22300,0.64700,0.04400,216.07207,98.14000,-1.17287,96,1.20302,0.16289,-0.01278,-0.12640,0.13196,0.77350,-0.00750,0.13950,-0.50700,1.20302,0.16289,-0.01278,-0.12640,0.13196,0.77350,-0.00854,0.14152,-0.50639,-0.25429,-0.24699,-0.00219
06/13/24 12:27:54.299583,1.00000,246.32001,-0.89121,-2.03217,2.21900,1.36700,0.22300,0.64700,0.04400,216.07207,98.14000,-1.17287,96,-0.27467,-0.10859,-0.81763,-0.23431,-0.02313,0.97571,-0.00600,0.13050,-0.50550,-0.27467,-0.10859,-0.81763,-0.23431,-0.02313,0.97571,-0.00505,0.13230,-0.50686,-0.11820,-0.00412,-0.04126
06/13/24 12:27:54.343773,1.00000,246.32001,-0.89121,-2.03217,2.21900,1.36700,0.22300,0.64700,0.04400,216.07207,98.14000,-1.17287,96,0.35345,0.05642,0.09475,-0.37610,0.05060,0.95526,-0.01800,0.13500,-0.51150,0.35345,0.05642,0.09475,-0.37610,0.05060,0.95526,-0.01772,0.13491,-0.50955,-0.11831,0.01443,0.11602
06/13/24 12:27:54.387360,1.00000,246.32001,-0.89121,-2.03217,2.21900,1.36700,0.22300,0.64700,0.04400,216.07207,98.14000,-1.17287,96,-0.28212,-0.00319,-0.02449,-0.24792,-0.00787,0.90314,-0.02400,0.13200,-0.51600,-0.28212,-0.00319,-0.02449,-0.24792,-0.00787,0.90314,-0.02302,0.13200,-0.51530,-0.08314,-0.06712,-0.00385
06/13/24 12:27:54.431717,1.00000,246.32001,-0.89121,-2.03217,2.21900,1.36700,0.22300,0.64700,0.04400,216.07207,98.14000,-1.17287,96,0.14372,0.01171,-0.01703,-0.11084,-0.16571,1.01868,-0.02250,0.13350,-0.50850,0.14372,0.01171,-0.01703,-0.11084,-0.16571,1.01868,-0.02098,0.13422,-0.50872,-0.01403,0.01345,-0.22398
06/13/24 12:27:54.475941,1.00000,246.32001,-0.89121,-2.03217,2.21900,1.36700,0.22300,0.64700,0.04400,216.07207,98.14000,-1.17287,96,0.17992,-0.01916,-0.18418,-0.17877,-0.04456,0.98956,-0.01950,0.13050,-0.50850,0.17992,-0.01916,-0.18418,-0.17877,-0.04456,0.98956,-0.01932,0.13122,-0.50863,-0.07968,-0.00234,-0.10730
06/13/24 12:27:54.519608,1.00000,246.32001,-0.89121,-2.03217,2.21900,1.36700,0.22300,0.64700,0.04400,216.07207,98.14000,-1.17287,96,0.25551,-0.10114,-0.81869,-0.00372,0.00317,0.98694,-0.02400,0.13650,-0.50850,0.25551,-0.10114,-0.81869,-0.00372,0.00317,0.98694,-0.02340,0.13653,-0.50822,-0.16701,-0.05502,-0.23063
06/13/24 12:27:54.564003,1.00000,246.32001,-0.89121,-2.03217,2.21900,1.36700,0.22300,0.64700,0.04400,216.07207,98.14000,-1.17287,96,-0.50037,0.10327,0.36410,-0.29456,-0.16235,1.06110,-0.03900,0.13050,-0.51150,-0.50037,0.10327,0.36410,-0.29456,-0.16235,1.06110,-0.03090,0.13174,-0.51430,0.09100,0.10731,-0.06808
06/13/24 12:27:54.607628,1.00000,246.32001,-0.89121,-2.03217,2.21900,1.36700,0.22300,0.64700,0.04400,216.07207,98.14000,-1.17287,96,-0.00532,0.03194,0.05749,-0.12683,-0.06421,0.95807,-0.03150,0.14100,-0.51150,-0.00532,0.03194,0.05749,-0.12683,-0.06421,0.95807,-0.03104,0.14012,-0.51102,-0.04979,-0.04376,-0.14573
06/13/24 12:27:54.654045,1.00000,246.32001,-0.89121,-2.03217,2.21900,1.36700,0.22300,0.64700,0.04400,216.07207,98.14000,-1.17287,96,-0.00958,-0.05536,-0.00426,-0.16174,-0.08838,1.01337,-0.03150,0.13350,-0.50850,-0.00958,-0.05536,-0.00426,-0.16174,-0.08838,1.01337,-0.03077,0.13400,-0.50876,-0.02367,0.02024,-0.13937
06/13/24 12:27:54.698212,1.00000,246.32001,-0.89121,-2.03217,2.21900,1.36700,0.22300,0.64700,0.04400,216.07207,98.14000,-1.17287,96,0.00532,0.01597,0.06175,-0.15253,-0.03882,0.95551,-0.02700,0.13500,-0.51000,0.00532,0.01597,0.06175,-0.15253,-0.03882,0.95551,-0.02747,0.13610,-0.51134,-0.05774,-0.03983,-0.11180
06/13/24 12:27:54.741962,1.00000,246.32001,-0.89121,-2.03217,2.21900,1.36700,0.22300,0.64700,0.04400,216.07207,98.14000,-1.17287,96,-0.04471,0.03407,0.02874,-0.09039,-0.10876,0.97919,-0.02250,0.13650,-0.51150,-0.04471,0.03407,0.02874,-0.09039,-0.10876,0.97919,-0.02435,0.13624,-0.51176,-0.02978,-0.03218,-0.20308
06/13/24 12:27:54.786091,1.00000,246.32001,-0.89121,-2.03217,2.21900,1.36700,0.22300,0.64700,0.04400,216.07207,98.14000,-1.17287,96,0.00213,0.03833,-0.00106,-0.13879,-0.07837,0.99017,-0.02850,0.14250,-0.50850,0.00213,0.03833,-0.00106,-0.13879,-0.07837,0.99017,-0.02784,0.14245,-0.50864,-0.03520,-0.00885,-0.14909
06/13/24 12:27:54.829723,1.00000,246.32001,-0.89121,-2.03217,2.21900,1.36700,0.22300,0.64700,0.04400,216.07207,98.14000,-1.17287,96,-0.01384,0.00532,-0.02342,-0.14264,-0.07678,0.96747,-0.02850,0.12900,-0.50700,-0.01384,0.00532,-0.02342,-0.14264,-0.07678,0.96747,-0.02818,0.13154,-0.50645,-0.03017,-0.02966,-0.14059
06/13/24 12:27:54.874035,1.00000,246.32001,-0.89121,-2.03217,2.21900,1.36700,0.22300,0.64700,0.04400,216.07207,98.14000,-1.17287,96,0.01810,-0.03194,-0.16182,-0.15076,-0.05444,0.96887,-0.02700,0.13800,-0.51000,0.01810,-0.03194,-0.16182,-0.15076,-0.05444,0.96887,-0.02331,0.13924,-0.51064,-0.04365,-0.02650,-0.12166
06/13/24 12:27:54.918201,1.00000,246.32001,-0.89121,-2.03217,2.21900,1.36700,0.22300,0.64700,0.04400,216.07207,98.14000,-1.17287,96,0.00958,0.00532,-0.00426,-0.14435,-0.07141,0.97064,-0.02700,0.13950,-0.50550,0.00958,0.00532,-0.00426,-0.14435,-0.07141,0.97064,-0.02821,0.14042,-0.50847,-0.03086,-0.02607,-0.13637
06/13/24 12:27:54.961804,1.00000,246.32001,-0.89121,-2.03217,2.21900,1.36700,0.22300,0.64700,0.04400,216.07207,98.14000,-1.17287,96,0.00213,0.05004,0.08517,-0.15845,-0.08063,0.94794,-0.03000,0.13350,-0.51150,0.00213,0.05004,0.08517,-0.15845,-0.08063,0.94794,-0.02538,0.13270,-0.50940,-0.01126,-0.04403,-0.12722
06/13/24 12:27:55.006187,1.00000,246.32001,-0.89121,-2.03217,2.21900,1.36700,0.22300,0.64700,0.04400,216.07207,98.14000,-1.17287,96,-0.01065,0.03407,0.06920,-0.16498,-0.08551,0.97815,-0.02250,0.13500,-0.51000,-0.01065,0.03407,0.06920,-0.16498,-0.08551,0.97815,-0.02601,0.13612,-0.50638,-0.00931,-0.01349,-0.13420
06/13/24 12:27:55.050396,1.00000,246.32001,-0.89121,-2.03217,2.21900,1.36700,0.22300,0.64700,0.04400,216.07207,98.14000,-1.17287,96,0.05004,0.03620,0.07665,-0.15967,-0.07587,0.97351,-0.02400,0.13500,-0.50850,0.05004,0.03620,0.07665,-0.15967,-0.07587,0.97351,-0.02530,0.13600,-0.50775,-0.01941,-0.01996,-0.13462
06/13/24 12:27:55.093987,1.00000,246.32001,-0.89121,-2.03217,2.21900,1.36700,0.22300,0.64700,0.04400,216.07207,98.14000,-1.17287,96,0.05004,0.05004,0.07772,-0.12952,-0.07977,0.98291,-0.02250,0.14250,-0.51000,0.05004,0.05004,0.07772,-0.12952,-0.07977,0.98291,-0.02296,0.14193,-0.50998,-0.03275,-0.01946,-0.16349
06/13/24 12:27:55.138325,1.00000,246.32001,-0.89121,-2.03217,2.21900,1.36700,0.22300,0.64700,0.04400,216.07207,98.14000,-1.17287,96,0.05217,0.07878,0.17992,-0.18121,-0.08490,0.96796,-0.02250,0.13650,-0.51450,0.05217,0.07878,0.17992,-0.18121,-0.08490,0.96796,-0.02081,0.13269,-0.51133,0.00544,-0.01943,-0.12424
06/13/24 12:27:55.181911,1.00000,246.32001,-0.89121,-2.03217,2.21900,1.36700,0.22300,0.64700,0.04400,216.07207,98.14000,-1.17287,96,0.02342,0.00532,0.00319,-0.13593,-0.05493,0.96991,-0.01800,0.13200,-0.50850,0.02342,0.00532,0.00319,-0.13593,-0.05493,0.96991,-0.01816,0.13211,-0.50925,-0.04331,-0.03072,-0.14438
06/13/24 12:27:55.226265,1.00000,246.32001,-0.89121,-2.03217,2.21900,1.36700,0.22300,0.64700,0.04400,216.07207,98.14000,-1.17287,96,-0.02981,-0.02129,-0.04046,-0.14734,-0.05695,0.96582,-0.01500,0.13050,-0.50850,-0.02981,-0.02129,-0.04046,-0.14734,-0.05695,0.96582,-0.01557,0.13291,-0.50648,-0.02967,-0.03118,-0.13513
06/13/24 12:27:55.270439,1.00000,246.32001,-0.89121,-2.03217,2.21900,1.36700,0.22300,0.64700,0.04400,216.07207,98.14000,-1.17287,96,-0.03833,0.01916,-0.00958,-0.18628,-0.06018,0.97150,-0.01350,0.12750,-0.50700,-0.03833,0.01916,-0.00958,-0.18628,-0.06018,0.97150,-0.01519,0.13305,-0.50769,-0.00565,-0.01499,-0.10883
06/13/24 12:27:55.314030,1.00000,246.32001,-0.89121,-2.03217,2.21900,1.36700,0.22300,0.64700,0.04400,216.07207,98.14000,-1.17287,96,-0.08091,0.01703,0.14692,-0.21344,-0.04602,0.96167,-0.01650,0.13800,-0.50850,-0.08091,0.01703,0.14692,-0.21344,-0.04602,0.96167,-0.01541,0.13349,-0.50797,-0.00051,-0.01706,-0.07951
06/13/24 12:27:55.358379,1.00000,246.32001,-0.89121,-2.03217,2.21900,1.36700,0.22300,0.64700,0.04400,216.07207,98.14000,-1.17287,96,-0.02129,-0.02129,0.08623,-0.14557,-0.07916,0.97913,-0.01650,0.12900,-0.51000,-0.02129,-0.02129,0.08623,-0.14557,-0.07916,0.97913,-0.01671,0.13137,-0.51039,-0.01726,-0.01927,-0.15498
06/13/24 12:27:55.401997,1.00000,246.32001,-0.89121,-2.03217,2.21900,1.36700,0.22300,0.64700,0.04400,216.07207,98.14000,-1.17287,96,-0.00958,-0.01597,0.15011,-0.20111,-0.04639,0.98743,-0.00900,0.13350,-0.51000,-0.00958,-0.01597,0.15011,-0.20111,-0.04639,0.98743,-0.01482,0.13308,-0.50903,-0.00910,0.00418,-0.09566
06/13/24 12:27:55.446114,1.00000,246.32001,-0.89121,-2.03217,2.21900,1.36700,0.22300,0.64700,0.04400,216.07207,98.14000,-1.17287,96,-0.01490,-0.03194,0.15224,-0.12006,-0.09674,0.93372,-0.01500,0.13350,-0.50400,-0.01490,-0.03194,0.15224,-0.12006,-0.09674,0.93372,-0.01435,0.13317,-0.50738,-0.00881,-0.07065,-0.17841
06/13/24 12:27:55.490368,1.00000,246.32001,-0.89121,-2.03217,2.21900,1.36700,0.22300,0.64700,0.04400,216.07207,98.14000,-1.17287,96,-0.07452,-0.02023,0.13734,-0.15015,-0.07770,0.97229,-0.01500,0.13350,-0.51000,-0.07452,-0.02023,0.13734,-0.15015,-0.07770,0.97229,-0.01143,0.13581,-0.50940,-0.01260,-0.02435,-0.14793
06/13/24 12:27:55.533905,1.00000,246.32001,-0.89121,-2.03217,2.21900,1.36700,0.22300,0.64700,0.04400,216.07207,98.14000,-1.17287,96,-0.05642,-0.00745,0.16076,-0.15149,-0.06738,0.97510,-0.01200,0.13500,-0.50850,-0.05642,-0.00745,0.16076,-0.15149,-0.06738,0.97510,-0.01119,0.13417,-0.50838,-0.02089,-0.02105,-0.13971
06/13/24 12:27:55.578163,1.00000,246.32001,-0.89121,-2.03217,2.21900,1.36700,0.22300,0.64700,0.04400,216.07207,98.14000,-1.17287,96,-0.06281,-0.00639,0.06068,-0.15265,-0.08368,0.98639,-0.00750,0.12900,-0.51000,-0.06281,-0.00639,0.06068,-0.15265,-0.08368,0.98639,-0.00939,0.13595,-0.50786,-0.01106,-0.00964,-0.14942
06/13/24 12:27:55.622265,1.00000,246.32001,-0.89121,-2.03217,2.21900,1.36700,0.22300,0.64700,0.04400,216.07207,98.14000,-1.17287,96,-0.04791,0.00639,0.10114,-0.13672,-0.07587,0.99146,-0.00900,0.13350,-0.50550,-0.04791,0.00639,0.10114,-0.13672,-0.07587,0.99146,-0.00700,0.13708,-0.50741,-0.02893,-0.00896,-0.15630
06/13/24 12:27:55.665821,1.00000,246.32001,-0.89121,-2.03217,2.21900,1.36700,0.22300,0.64700,0.04400,216.07207,98.14000,-1.17287,96,-0.02023,-0.01490,0.02662,-0.16290,-0.07123,0.96307,-0.00600,0.13800,-0.50400,-0.02023,-0.01490,0.02662,-0.16290,-0.07123,0.96307,-0.00692,0.13527,-0.50658,-0.00905,-0.02937,-0.13010
06/13/24 12:27:55.710049,1.00000,246.32001,-0.89121,-2.03217,2.21900,1.36700,0.22300,0.64700,0.04400,216.07207,98.14000,-1.17287,96,-0.03300,0.02662,0.07026,-0.15527,-0.07587,0.97369,-0.00750,0.13800,-0.50400,-0.03300,0.02662,0.07026,-0.15527,-0.07587,0.97369,-0.00787,0.13738,-0.50374,-0.01306,-0.02144,-0.14212
06/13/24 12:27:55.753544,1.00000,246.32001,-0.89121,-2.03217,2.21900,1.36700,0.22300,0.64700,0.04400,216.07207,98.14000,-1.17287,96,-0.00852,-0.00319,0.06707,-0.17322,-0.06635,0.95856,-0.00600,0.13950,-0.50550,-0.00852,-0.00319,0.06707,-0.17322,-0.06635,0.95856,-0.00936,0.13938,-0.50692,-0.00598,-0.03113,-0.12041
06/13/24 12:27:55.797623,1.00000,246.32001,-0.89121,-2.03217,2.21900,1.36700,0.22300,0.64700,0.04400,216.07207,98.14000,-1.17287,96,-0.03087,-0.01065,0.03300,-0.16370,-0.07666,0.97778,-0.00900,0.14250,-0.51300,-0.03087,-0.01065,0.03300,-0.16370,-0.07666,0.97778,-0.00818,0.14054,-0.50710,-0.00861,-0.01549,-0.13928
06/13/24 12:27:55.841911,1.00000,246.32001,-0.89121,-2.03217,2.21900,1.36700,0.22300,0.64700,0.04400,216.07207,98.14000,-1.17287,96,0.01597,-0.02981,0.01703,-0.15033,-0.08435,0.98920,-0.01050,0.13950,-0.50100,0.01597,-0.02981,0.01703,-0.15033,-0.08435,0.98920,-0.00698,0.13769,-0.50424,-0.01319,-0.00827,-0.15659
06/13/24 12:27:55.885460,1.00000,246.32001,-0.89121,-2.03217,2.21900,1.36700,0.22300,0.64700,0.04400,216.07207,98.14000,-1.17287,96,-0.00958,0.00639,0.01597,-0.16992,-0.08179,0.95776,-0.01200,0.13800,-0.50550,-0.00958,0.00639,0.01597,-0.16992,-0.08179,0.95776,-0.00903,0.14006,-0.50491,0.00409,-0.03317,-0.13451
06/13/24 12:27:55.929504,1.00000,246.32001,-0.89121,-2.03217,2.21900,1.36700,0.22300,0.64700,0.04400,216.07207,98.14000,-1.17287,96,-0.03407,-0.00958,0.02874,-0.16498,-0.08167,0.96222,-0.00750,0.13650,-0.50550,-0.03407,-0.00958,0.02874,-0.16498,-0.08167,0.96222,-0.00810,0.13880,-0.50591,-0.00117,-0.03016,-0.13846
06/13/24 12:27:55.973236,1.00000,246.32001,-0.89121,-2.03217,2.21900,1.36700,0.22300,0.64700,0.04400,216.07207,98.14000,-1.17287,96,-0.05110,-0.01597,0.02981,-0.13818,-0.09277,0.97186,-0.00450,0.14250,-0.51000,-0.05110,-0.01597,0.02981,-0.13818,-0.09277,0.97186,-0.00685,0.14013,-0.50646,-0.01429,-0.02803,-0.16518
06/13/24 12:27:56.017365,1.00000,246.32001,-0.89121,-2.03217,2.21900,1.36700,0.22300,0.64700,0.04400,216.07207,98.14000,-1.17287,96,-0.03194,-0.02342,0.00852,-0.14941,-0.09357,0.96338,-0.01050,0.13800,-0.50550,-0.03194,-0.02342,0.00852,-0.14941,-0.09357,0.96338,-0.00874,0.13687,-0.50635,-0.00461,-0.03288,-0.15442
06/13/24 12:27:56.061680,1.00000,246.32001,-0.89121,-2.03217,2.21900,1.36700,0.22300,0.64700,0.04400,216.07207,98.14000,-1.17287,96,0.00426,-0.04791,-0.00106,-0.14276,-0.10492,0.99481,-0.00750,0.14400,-0.50400,0.00426,-0.04791,-0.00106,-0.14276,-0.10492,0.99481,-0.00801,0.13983,-0.50626,-0.00592,-0.00410,-0.17084
06/13/24 12:27:56.105228,1.00000,246.32001,-0.89121,-2.03217,2.21900,1.36700,0.22300,0.64700,0.04400,216.07207,98.14000,-1.17287,96,0.16927,0.00106,-0.02662,-0.12909,-0.09357,1.02112,-0.00600,0.13950,-0.50250,0.16927,0.00106,-0.02662,-0.12909,-0.09357,1.02112,-0.01050,0.13970,-0.50391,-0.02445,0.01747,-0.17961
06/13/24 12:27:56.149345,1.00000,246.32001,-0.89121,-2.03217,2.21900,1.36700,0.22300,0.64700,0.04400,216.07207,98.14000,-1.17287,96,0.06707,0.01278,-0.04578,-0.18677,-0.04816,0.91467,-0.00600,0.12900,-0.50400,0.06707,0.01278,-0.04578,-0.18677,-0.04816,0.91467,-0.00987,0.13859,-0.50341,0.00527,-0.06946,-0.08882
06/13/24 12:27:56.193649,1.00000,246.32001,-0.89121,-2.03217,2.21900,1.36700,0.22300,0.64700,0.04400,216.07207,98.14000,-1.17287,96,-0.03300,-0.04258,-0.05110,-0.14569,-0.08411,0.95929,-0.01800,0.13650,-0.51450,-0.03300,-0.04258,-0.05110,-0.14569,-0.08411,0.95929,-0.01104,0.13744,-0.50594,-0.00476,-0.03749,-0.14864
06/13/24 12:27:56.237225,1.00000,246.32001,-0.89121,-2.03217,2.21900,1.36700,0.22300,0.64700,0.04400,216.07207,98.14000,-1.17287,96,0.00852,-0.02342,-0.03194,-0.16803,-0.05316,0.97357,-0.01500,0.13950,-0.50400,0.00852,-0.02342,-0.03194,-0.16803,-0.05316,0.97357,-0.01257,0.13875,-0.50750,-0.01274,-0.01716,-0.11295
06/13/24 12:27:56.281345,1.00000,246.32001,-0.89121,-2.03217,2.21900,1.36700,0.22300,0.64700,0.04400,216.07207,98.14000,-1.17287,96,-0.12137,0.00852,0.02981,-0.16473,-0.04834,0.95013,-0.01350,0.14100,-0.51150,-0.12137,0.00852,0.02981,-0.16473,-0.04834,0.95013,-0.01207,0.13931,-0.50898,-0.01529,-0.04066,-0.10799
06/13/24 12:27:56.325104,1.00000,246.32001,-0.89121,-2.03217,2.21900,1.36700,0.22300,0.64700,0.04400,216.07207,98.14000,-1.17287,96,-0.12137,-0.04684,0.03513,-0.17114,-0.09698,0.98907,-0.00750,0.13800,-0.50550,-0.12137,-0.04684,0.03513,-0.17114,-0.09698,0.98907,-0.01100,0.13815,-0.50825,0.01512,-0.00218,-0.14523
06/13/24 12:27:56.369263,1.00000,246.32001,-0.89121,-2.03217,2.21900,1.36700,0.22300,0.64700,0.04400,216.07207,98.14000,-1.17287,96,-0.03620,-0.00852,0.06175,-0.13623,-0.09613,0.98431,-0.01050,0.13500,-0.50400,-0.03620,-0.00852,0.06175,-0.13623,-0.09613,0.98431,-0.00957,0.13830,-0.50428,-0.01071,-0.01554,-0.16550
06/13/24 12:27:56.413410,1.00000,246.32001,-0.89121,-2.03217,2.21900,1.36700,0.22300,0.64700,0.04400,216.07207,98.14000,-1.17287,96,-0.00958,0.00639,0.05217,-0.14795,-0.08508,0.98065,-0.01200,0.14400,-0.50250,-0.00958,0.00639,0.05217,-0.14795,-0.08508,0.98065,-0.01041,0.14660,-0.50375,-0.00941,-0.01569,-0.14785
06/13/24 12:27:56.457214,1.00000,246.32001,-0.89121,-2.03217,2.21900,1.36700,0.22300,0.64700,0.04400,216.07207,98.14000,-1.17287,96,0.01171,0.02555,0.06068,-0.14526,-0.09100,0.98566,-0.01500,0.14850,-0.50250,0.01171,0.02555,0.06068,-0.14526,-0.09100,0.98566,-0.01239,0.14419,-0.50328,-0.00725,-0.01151,-0.15409
06/13/24 12:27:56.501305,1.00000,246.32001,-0.89121,-2.03217,2.21900,1.36700,0.22300,0.64700,0.04400,216.07207,98.14000,-1.17287,96,0.02023,0.00319,0.07452,-0.15637,-0.08789,0.96948,-0.01350,0.14100,-0.50550,0.02023,0.00319,0.07452,-0.15637,-0.08789,0.96948,-0.01090,0.14185,-0.50488,0.00151,-0.02430,-0.14169
06/13/24 12:27:56.545021,1.00000,246.32001,-0.89121,-2.03217,2.21900,1.36700,0.22300,0.64700,0.04400,216.07207,98.14000,-1.17287,96,0.06388,-0.01916,0.06281,-0.16052,-0.08618,0.97931,-0.00900,0.13500,-0.50250,0.06388,-0.01916,0.06281,-0.16052,-0.08618,0.97931,-0.01131,0.14008,-0.50494,0.00324,-0.01383,-0.14035
06/13/24 12:27:56.589146,1.00000,246.32001,-0.89121,-2.03217,2.21900,1.36700,0.22300,0.64700,0.04400,216.07207,98.14000,-1.17287,96,0.06494,-0.00319,0.07346,-0.15881,-0.07599,0.97162,-0.01200,0.13650,-0.50700,0.06494,-0.00319,0.07346,-0.15881,-0.07599,0.97162,-0.00998,0.13980,-0.50491,-0.00216,-0.02192,-0.13560
06/13/24 12:27:56.633232,1.00000,246.32001,-0.89121,-2.03217,2.21900,1.36700,0.22300,0.64700,0.04400,216.07207,98.14000,-1.17287,96,0.04684,-0.02768,0.12988,-0.16614,-0.07861,0.97089,-0.01200,0.14250,-0.50700,0.04684,-0.02768,0.12988,-0.16614,-0.07861,0.97089,-0.00919,0.13903,-0.50470,0.00600,-0.02119,-0.13528
06/13/24 12:27:56.676949,1.00000,246.32001,-0.89121,-2.03217,2.21900,1.36700,0.22300,0.64700,0.04400,216.07207,98.14000,-1.17287,96,0.04046,-0.01916,0.12988,-0.15710,-0.07190,0.97668,-0.00900,0.13200,-0.50550,0.04046,-0.01916,0.12988,-0.15710,-0.07190,0.97668,-0.00803,0.13647,-0.50435,-0.00474,-0.01809,-0.13999
06/13/24 12:27:56.721066,1.00000,246.32001,-0.89121,-2.03217,2.21900,1.36700,0.22300,0.64700,0.04400,216.07207,98.14000,-1.17287,96,0.07559,-0.01597,0.16076,-0.15369,-0.07245,0.97571,-0.00450,0.13500,-0.49950,0.07559,-0.01597,0.16076,-0.15369,-0.07245,0.97571,-0.00694,0.13631,-0.50302,-0.00460,-0.02039,-0.14564
06/13/24 12:27:56.764610,1.00000,246.32001,-0.89121,-2.03217,2.21900,1.36700,0.22300,0.64700,0.04400,216.07207,98.14000,-1.17287,96,0.09049,0.01490,0.13521,-0.12769,-0.07751,0.97827,-0.00750,0.13350,-0.50550,0.09049,0.01490,0.13521,-0.12769,-0.07751,0.97827,-0.00632,0.13590,-0.50503,-0.01818,-0.02520,-0.16957
06/13/24 12:27:56.808899,1.00000,246.32001,-0.89121,-2.03217,2.21900,1.36700,0.22300,0.64700,0.04400,216.07207,98.14000,-1.17287,96,0.04365,0.00852,0.04684,-0.09082,-0.05878,0.95563,-0.00450,0.13200,-0.50400,0.04365,0.00852,0.04684,-0.09082,-0.05878,0.95563,-0.00508,0.13233,-0.50440,-0.04945,-0.05572,-0.17555
06/13/24 12:27:56.852997,1.00000,246.32001,-0.89121,-2.03217,2.21900,1.36700,0.22300,0.64700,0.04400,216.07207,98.14000,-1.17287,96,-0.04791,0.01703,0.05217,-0.13647,-0.06512,0.96741,0.00000,0.12750,-0.51450,-0.04791,0.01703,0.05217,-0.13647,-0.06512,0.96741,-0.00405,0.13133,-0.50845,-0.01145,-0.03280,-0.15209
06/13/24 12:27:56.896511,1.00000,246.32001,-0.89121,-2.03217,2.21900,1.36700,0.22300,0.64700,0.04400,216.07207,98.14000,-1.17287,96,-0.02449,0.03939,0.03513,-0.13678,-0.06232,0.98261,-0.00750,0.13350,-0.51450,-0.02449,0.03939,0.03513,-0.13678,-0.06232,0.98261,-0.00492,0.13223,-0.51186,-0.01436,-0.01776,-0.15199
06/13/24 12:27:56.940750,1.00000,246.32001,-0.89121,-2.03217,2.21900,1.36700,0.22300,0.64700,0.04400,216.07207,98.14000,-1.17287,96,0.05855,0.02555,0.00213,-0.11774,-0.10315,1.02179,-0.00900,0.13950,-0.51000,0.05855,0.02555,0.00213,-0.11774,-0.10315,1.02179,-0.00727,0.13500,-0.51042,-0.00716,0.01359,-0.20284
06/13/24 12:27:56.984844,1.00000,246.32001,-0.89121,-2.03217,2.21900,1.36700,0.22300,0.64700,0.04400,216.07207,98.14000,-1.17287,96,0.19376,0.03939,0.02662,-0.14032,-0.08447,0.99011,-0.01050,0.12300,-0.51000,0.19376,0.03939,0.02662,-0.14032,-0.08447,0.99011,-0.00630,0.12812,-0.50960,0.00549,-0.01145,-0.17289
06/13/24 12:27:57.028606,1.00000,246.32001,-0.89121,-2.03217,2.21900,1.36700,0.22300,0.64700,0.04400,216.07207,98.14000,-1.17287,96,0.12456,-0.02662,-0.09369,-0.13062,-0.04095,0.92957,-0.00600,0.12450,-0.51000,0.12456,-0.02662,-0.09369,-0.13062,-0.04095,0.92957,-0.00583,0.12872,-0.51023,-0.01695,-0.07071,-0.13770
06/13/24 12:27:57.072777,1.00000,246.32001,-0.89121,-2.03217,2.21900,1.36700,0.22300,0.64700,0.04400,216.07207,98.14000,-1.17287,96,0.07665,-0.05004,-0.10540,-0.16803,-0.02881,1.00708,-0.00600,0.12600,-0.51000,0.07665,-0.05004,-0.10540,-0.16803,-0.02881,1.00708,-0.00320,0.12869,-0.51014,-0.00417,0.01397,-0.12301
06/13/24 12:27:57.116299,1.00000,246.32001,-0.89121,-2.03217,2.21900,1.36700,0.22300,0.64700,0.04400,216.07207,98.14000,-1.17287,96,0.11498,0.01490,-0.04471,-0.16290,-0.05853,0.96588,-0.00750,0.12300,-0.51600,0.11498,0.01490,-0.04471,-0.16290,-0.05853,0.96588,-0.00484,0.12530,-0.51246,0.02016,-0.02964,-0.14449
06/13/24 12:27:57.160603,1.00000,246.32001,-0.89121,-2.03217,2.21900,1.36700,0.22300,0.64700,0.04400,216.07207,98.14000,-1.17287,96,0.02662,-0.01490,-0.10114,-0.14453,-0.04865,0.95087,-0.00900,0.12150,-0.51300,0.02662,-0.01490,-0.10114,-0.14453,-0.04865,0.95087,-0.00693,0.12329,-0.51304,0.00382,-0.04834,-0.14739
06/13/24 12:27:57.204731,1.00000,246.32001,-0.89121,-2.03217,2.21900,1.36700,0.22300,0.64700,0.04400,216.07207,98.14000,-1.17287,96,0.10114,0.01171,-0.04046,-0.16864,-0.07141,0.99615,-0.00450,0.12600,-0.51000,0.10114,0.01171,-0.04046,-0.16864,-0.07141,0.99615,-0.00710,0.12346,-0.51155,0.03069,-0.00011,-0.15855
06/13/24 12:27:57.248302,1.00000,246.32001,-0.89121,-2.03217,2.21900,1.36700,0.22300,0.64700,0.04400,216.07207,98.14000,-1.17287,96,0.08304,0.03300,-0.06707,-0.15137,-0.01990,0.93793,-0.00750,0.12450,-0.51750,0.08304,0.03300,-0.06707,-0.15137,-0.01990,0.93793,-0.00849,0.12441,-0.51565,-0.00746,-0.05736,-0.11997
06/13/24 12:27:57.292587,1.00000,246.32001,-0.89121,-2.03217,2.21900,1.36700,0.22300,0.64700,0.04400,216.07207,98.14000,-1.17287,96,-0.00106,-0.02342,-0.12988,-0.13062,-0.02643,0.98798,-0.01500,0.11700,-0.51900,-0.00106,-0.02342,-0.12988,-0.13062,-0.02643,0.98798,-0.00977,0.11898,-0.51708,-0.02464,-0.01449,-0.14841
06/13/24 12:27:57.336182,1.00000,246.32001,-0.89121,-2.03217,2.21900,1.36700,0.22300,0.64700,0.04400,216.07207,98.14000,-1.17287,96,0.02236,-0.03407,-0.17673,-0.14581,-0.05853,0.98212,-0.00750,0.12600,-0.51450,0.02236,-0.03407,-0.17673,-0.14581,-0.05853,0.98212,-0.00842,0.12340,-0.51594,0.01000,-0.01829,-0.15933
06/13/24 12:27:57.380268,1.00000,246.32001,-0.89121,-2.03217,2.21900,1.36700,0.22300,0.64700,0.04400,216.07207,98.14000,-1.17287,96,0.05323,-0.01278,-0.19589,-0.13715,-0.03278,0.95850,-0.01200,0.12000,-0.51300,0.05323,-0.01278,-0.19589,-0.13715,-0.03278,0.95850,-0.01058,0.12378,-0.51618,-0.01083,-0.04155,-0.14092
06/13/24 12:27:57.424580,1.00000,246.32001,-0.89121,-2.03217,2.21900,1.36700,0.22300,0.64700,0.04400,216.07207,98.14000,-1.17287,96,-0.01065,-0.00958,-0.20015,-0.12738,-0.04126,0.98926,-0.01200,0.12150,-0.52200,-0.01065,-0.00958,-0.20015,-0.12738,-0.04126,0.98926,-0.01045,0.12104,-0.52038,-0.01519,-0.01451,-0.15853
06/13/24 12:27:57.468147,1.00000,246.32001,-0.89121,-2.03217,2.21900,1.36700,0.22300,0.64700,0.04400,216.07207,98.14000,-1.17287,96,-0.03194,-0.01171,-0.29383,-0.13629,-0.06750,0.97772,-0.01050,0.12000,-0.51450,-0.03194,-0.01171,-0.29383,-0.13629,-0.06750,0.97772,-0.01166,0.11909,-0.51655,0.01139,-0.02455,-0.16563
06/13/24 12:27:57.512470,1.00000,246.32001,-0.89121,-2.03217,2.21900,1.36700,0.22300,0.64700,0.04400,216.07207,98.14000,-1.17287,96,-0.00213,0.00532,-0.29277,-0.14508,-0.01288,0.97876,-0.01650,0.12450,-0.51900,-0.00213,0.00532,-0.29277,-0.14508,-0.01288,0.97876,-0.01390,0.12019,-0.51827,-0.02186,-0.01785,-0.11868
06/13/24 12:27:57.556618,1.00000,246.32001,-0.89121,-2.03217,2.21900,1.36700,0.22300,0.64700,0.04400,216.07207,98.14000,-1.17287,96,0.01916,-0.01810,-0.32364,-0.17322,-0.04950,0.97681,-0.02100,0.11850,-0.52350,0.01916,-0.01810,-0.32364,-0.17322,-0.04950,0.97681,-0.01696,0.12243,-0.51958,0.02456,-0.01507,-0.12613
06/13/24 12:27:57.600239,1.00000,246.32001,-0.89121,-2.03217,2.21900,1.36700,0.22300,0.64700,0.04400,216.07207,98.14000,-1.17287,96,-0.06814,-0.00319,-0.18950,-0.19666,-0.05444,0.95386,-0.02400,0.12300,-0.51750,-0.06814,-0.00319,-0.18950,-0.19666,-0.05444,0.95386,-0.02135,0.12304,-0.51964,0.04418,-0.03168,-0.10906
06/13/24 12:27:57.644642,1.00000,246.32001,-0.89121,-2.03217,2.21900,1.36700,0.22300,0.64700,0.04400,216.07207,98.14000,-1.17287,96,-0.13521,-0.06814,-0.05642,-0.18555,-0.03436,0.96613,-0.02700,0.12450,-0.51750,-0.13521,-0.06814,-0.05642,-0.18555,-0.03436,0.96613,-0.02191,0.12259,-0.51758,0.01378,-0.02128,-0.10448
06/13/24 12:27:57.688309,1.00000,246.32001,-0.89121,-2.03217,2.21900,1.36700,0.22300,0.64700,0.04400,216.07207,98.14000,-1.17287,96,-0.08304,-0.09795,-0.07346,-0.12378,-0.03284,0.93787,-0.02700,0.12000,-0.51900,-0.08304,-0.09795,-0.07346,-0.12378,-0.03284,0.93787,-0.02402,0.12147,-0.51707,-0.02614,-0.06366,-0.13632
06/13/24 12:27:57.732510,1.00000,246.32001,-0.89121,-2.03217,2.21900,1.36700,0.22300,0.64700,0.04400,216.07207,98.14000,-1.17287,96,-0.01171,-0.07133,-0.07772,-0.15833,-0.01794,1.02521,-0.02850,0.12450,-0.51450,-0.01171,-0.07133,-0.07772,-0.15833,-0.01794,1.02521,-0.02863,0.12706,-0.51367,-0.01944,0.03135,-0.11126
06/13/24 12:27:57.776836,1.00000,246.32001,-0.89121,-2.03217,2.21900,1.36700,0.22300,0.64700,0.04400,216.07207,98.14000,-1.17287,96,0.02874,0.01916,0.07985,-0.11755,0.01862,0.96777,-0.03600,0.12600,-0.51750,0.02874,0.01916,0.07985,-0.11755,0.01862,0.96777,-0.03346,0.12789,-0.51605,-0.06103,-0.03220,-0.10193
06/13/24 12:27:57.820438,1.00000,246.32001,-0.89121,-2.03217,2.21900,1.36700,0.22300,0.64700,0.04400,216.07207,98.14000,-1.17287,96,-0.10753,0.02342,0.05642,-0.08246,-0.01996,0.94293,-0.02100,0.12750,-0.51450,-0.10753,0.02342,0.05642,-0.08246,-0.01996,0.94293,-0.02167,0.12688,-0.51494,-0.04822,-0.06620,-0.14838
06/13/24 12:27:57.864811,1.00000,246.32001,-0.89121,-2.03217,2.21900,1.36700,0.22300,0.64700,0.04400,216.07207,98.14000,-1.17287,96,-0.18311,-0.01490,-0.08943,-0.05457,-0.08765,0.99530,-0.03150,0.12900,-0.51450,-0.18311,-0.01490,-0.08943,-0.05457,-0.08765,0.99530,-0.03182,0.12572,-0.51047,-0.02524,-0.02226,-0.21136
06/13/24 12:27:57.908413,1.00000,246.32001,-0.89121,-2.03217,2.21900,1.36700,0.22300,0.64700,0.04400,216.07207,98.14000,-1.17287,96,-0.15118,-0.06920,-0.18844,-0.07916,-0.06842,1.00531,-0.03150,0.13350,-0.51300,-0.15118,-0.06920,-0.18844,-0.07916,-0.06842,1.00531,-0.03138,0.13245,-0.51404,-0.02513,-0.00374,-0.16863
06/13/24 12:27:57.952545,1.00000,246.32001,-0.89121,-2.03217,2.21900,1.36700,0.22300,0.64700,0.04400,216.07207,98.14000,-1.17287,96,-0.06388,0.01703,-0.16608,-0.11292,-0.01819,0.97894,-0.03450,0.13650,-0.50700,-0.06388,0.01703,-0.16608,-0.11292,-0.01819,0.97894,-0.03474,0.13467,-0.50915,-0.03259,-0.02026,-0.10228
06/13/24 12:27:57.996925,1.00000,246.32001,-0.89121,-2.03217,2.21900,1.36700,0.22300,0.64700,0.04400,216.07207,98.14000,-1.17287,96,-0.00639,0.02236,-0.09475,-0.14276,-0.05084,1.00189,-0.02850,0.13800,-0.51450,-0.00639,0.02236,-0.09475,-0.14276,-0.05084,1.00189,-0.03167,0.13446,-0.50866,0.00770,0.00731,-0.10961
06/13/24 12:27:58.040558,1.00000,246.32001,-0.89121,-2.03217,2.21900,1.36700,0.22300,0.64700,0.04400,216.07207,98.14000,-1.17287,96,0.04791,0.05217,-0.04471,-0.15240,-0.06183,0.99170,-0.03150,0.13650,-0.50700,0.04791,0.05217,-0.04471,-0.15240,-0.06183,0.99170,-0.03154,0.13571,-0.50822,0.02261,-0.00141,-0.11326
06/13/24 12:27:58.084736,1.00000,246.32001,-0.89121,-2.03217,2.21900,1.36700,0.22300,0.64700,0.04400,216.07207,98.14000,-1.17287,96,0.03939,0.05962,0.01384,-0.12531,-0.02783,0.97021,-0.03900,0.13800,-0.51450,0.03939,0.05962,0.01384,-0.12531,-0.02783,0.97021,-0.03313,0.13645,-0.50930,-0.01751,-0.02776,-0.11065
06/13/24 12:27:58.129074,1.00000,246.32001,-0.89121,-2.03217,2.21900,1.36700,0.22300,0.64700,0.04400,216.07207,98.14000,-1.17287,96,0.03726,0.15224,0.05323,-0.11719,-0.00623,0.99158,-0.03450,0.13350,-0.50550,0.03726,0.15224,0.05323,-0.11719,-0.00623,0.99158,-0.03248,0.13487,-0.51185,-0.03868,-0.00862,-0.11257
06/13/24 12:27:58.172668,1.00000,246.32001,-0.89121,-2.03217,2.21900,1.36700,0.22300,0.64700,0.04400,216.07207,98.14000,-1.17287,96,0.02023,0.24380,0.23102,-0.16541,-0.04755,0.97516,-0.03450,0.13650,-0.51300,0.02023,0.24380,0.23102,-0.16541,-0.04755,0.97516,-0.03304,0.13498,-0.51130,0.02535,-0.01699,-0.11665
06/13/24 12:27:58.216831,1.00000,246.32001,-0.89121,-2.03217,2.21900,1.36700,0.22300,0.64700,0.04400,216.07207,98.14000,-1.17287,96,0.06388,0.25125,0.25019,-0.18646,-0.07245,0.96954,-0.02850,0.13200,-0.51600,0.06388,0.25125,0.25019,-0.18646,-0.07245,0.96954,-0.02966,0.13214,-0.51477,0.05065,-0.01982,-0.12931
06/13/24 12:27:58.260574,1.00000,246.32001,-0.89121,-2.03217,2.21900,1.36700,0.22300,0.64700,0.04400,216.07207,98.14000,-1.17287,96,0.32684,-0.04152,0.41946,-0.53070,-0.12054,1.07678,-0.01800,0.12900,-0.50700,0.32684,-0.04152,0.41946,-0.53070,-0.12054,1.07678,-0.01838,0.12951,-0.50797,0.30765,0.16639,0.02306
06/13/24 12:27:58.304817,1.00000,246.32001,-0.89121,-2.03217,2.21900,1.36700,0.22300,0.64700,0.04400,216.07207,98.14000,-1.17287,96,3.52283,0.02342,0.74204,-0.25708,0.11005,0.62299,-0.01950,0.11250,-0.51750,3.52283,0.02342,0.74204,-0.25708,0.11005,0.62299,-0.01805,0.11659,-0.51708,0.05055,-0.32323,0.07579
06/13/24 12:27:58.349152,1.00000,246.32001,-0.89121,-2.03217,2.21900,1.36700,0.22300,0.64700,0.04400,216.07207,98.14000,-1.17287,96,0.96348,0.30342,1.13914,-0.09583,0.76831,0.78516,0.00150,0.05250,-0.54000,0.96348,0.30342,1.13914,-0.09583,0.76831,0.78516,-0.00076,0.05556,-0.53927,-0.45549,-0.05189,0.33101
06/13/24 12:27:58.392792,1.00000,246.32001,-0.89121,-2.03217,2.21900,1.36700,0.22300,0.64700,0.04400,216.07207,98.14000,-1.17287,96,-1.38613,0.32364,0.37900,-0.42572,0.35999,0.86627,0.02250,0.04350,-0.52950,-1.38613,0.32364,0.37900,-0.42572,0.35999,0.86627,0.02107,0.03742,-0.53400,0.03699,0.01372,0.17960
06/13/24 12:27:58.436939,1.00000,246.32001,-0.89121,-2.03217,2.21900,1.36700,0.22300,0.64700,0.04400,216.07207,98.14000,-1.17287,96,-1.76514,0.28532,0.39497,-0.11957,-0.01898,1.08392,0.02250,0.06600,-0.52950,-1.76514,0.28532,0.39497,-0.11957,-0.01898,1.08392,0.02255,0.06491,-0.53011,-0.04311,0.04482,-0.30991
06/13/24 12:27:58.480747,1.00000,246.32001,-0.89121,-2.03217,2.21900,1.36700,0.22300,0.64700,0.04400,216.07207,98.14000,-1.17287,96,-0.30768,0.17992,-0.09049,-0.13660,-0.02472,1.08691,0.03150,0.09600,-0.51900,-0.30768,0.17992,-0.09049,-0.13660,-0.02472,1.08691,0.03013,0.09530,-0.51986,-0.06353,0.05863,-0.27552
06/13/24 12:27:58.524860,1.00000,246.32001,-0.89121,-2.03217,2.21900,1.36700,0.22300,0.64700,0.04400,216.07207,98.14000,-1.17287,96,-0.18311,0.24273,-0.10007,-0.23529,0.08154,0.79150,0.02550,0.10500,-0.51750,-0.18311,0.24273,-0.10007,-0.23529,0.08154,0.79150,0.03058,0.09576,-0.51614,-0.00151,-0.17156,-0.04655
06/13/24 12:27:58.569008,1.00000,246.32001,-0.89121,-2.03217,2.21900,1.36700,0.22300,0.64700,0.04400,216.07207,98.14000,-1.17287,96,-0.43756,0.03939,-0.11817,-0.38013,0.00287,0.88580,0.03000,0.10800,-0.50700,-0.43756,0.03939,-0.11817,-0.38013,0.00287,0.88580,0.02997,0.10709,-0.50787,0.12054,-0.04518,-0.05423
06/13/24 12:27:58.612839,1.00000,246.32001,-0.89121,-2.03217,2.21900,1.36700,0.22300,0.64700,0.04400,216.07207,98.14000,-1.17287,96,-0.34387,-0.05855,-0.04578,-0.35931,0.02942,0.91541,0.02550,0.11400,-0.50100,-0.34387,-0.05855,-0.04578,-0.35931,0.02942,0.91541,0.02424,0.11761,-0.50386,0.05571,-0.01887,-0.04718
06/13/24 12:27:58.657005,1.00000,246.32001,-0.89121,-2.03217,2.21900,1.36700,0.22300,0.64700,0.04400,216.07207,98.14000,-1.17287,96,-0.16182,-0.10753,-0.00958,-0.31189,0.01855,0.94507,0.02550,0.12450,-0.49800,-0.16182,-0.10753,-0.00958,-0.31189,0.01855,0.94507,0.02444,0.11897,-0.50068,0.01144,-0.00858,-0.08794
06/13/24 12:27:58.700836,1.00000,246.32001,-0.89121,-2.03217,2.21900,1.36700,0.22300,0.64700,0.04400,216.07207,98.14000,-1.17287,96,0.12137,-0.28425,-0.14798,-0.19501,0.09808,0.98792,0.01800,0.12150,-0.49950,0.12137,-0.28425,-0.14798,-0.19501,0.09808,0.98792,0.01922,0.12080,-0.50062,-0.12522,-0.00135,-0.10314
06/13/24 12:27:58.745071,1.00000,246.32001,-0.89121,-2.03217,2.21900,1.36700,0.22300,0.64700,0.04400,216.07207,98.14000,-1.17287,96,-0.19695,-0.18099,-0.43969,-0.19843,-0.03204,1.16620,0.01350,0.12900,-0.49950,-0.19695,-0.18099,-0.43969,-0.19843,-0.03204,1.16620,0.01586,0.12674,-0.49921,-0.06769,0.15695,-0.23940
06/13/24 12:27:58.789276,1.00000,246.32001,-0.89121,-2.03217,2.21900,1.36700,0.22300,0.64700,0.04400,216.07207,98.14000,-1.17287,96,0.13840,0.34387,-0.10433,-0.25342,-0.10590,1.12408,0.00900,0.13350,-0.49350,0.13840,0.34387,-0.10433,-0.25342,-0.10590,1.12408,0.01000,0.13230,-0.49310,0.01854,0.13008,-0.24813
06/13/24 12:27:58.833115,1.00000,246.32001,-0.89121,-2.03217,2.21900,1.36700,0.22300,0.64700,0.04400,216.07207,98.14000,-1.17287,96,0.04152,0.15756,0.10646,-0.27545,-0.16016,0.85828,0.00900,0.12900,-0.49200,0.04152,0.15756,0.10646,-0.27545,-0.16016,0.85828,0.00908,0.12995,-0.49347,0.11503,-0.11335,-0.19695
06/13/24 12:27:58.877300,1.00000,246.32001,-0.89121,-2.03217,2.21900,1.36700,0.22300,0.64700,0.04400,216.07207,98.14000,-1.17287,96,-0.13947,-0.09475,-0.12456,-0.21936,-0.15552,0.93433,0.00600,0.13650,-0.49650,-0.13947,-0.09475,-0.12456,-0.21936,-0.15552,0.93433,0.00616,0.13622,-0.49562,0.04694,-0.05592,-0.22756
06/13/24 12:27:58.920937,1.00000,246.32001,-0.89121,-2.03217,2.21900,1.36700,0.22300,0.64700,0.04400,216.07207,98.14000,-1.17287,96,-0.03300,-0.21718,-0.06175,-0.12347,-0.12518,0.93085,0.00450,0.13800,-0.49950,-0.03300,-0.21718,-0.06175,-0.12347,-0.12518,0.93085,0.00518,0.13659,-0.49775,-0.03316,-0.08248,-0.23333
06/13/24 12:27:58.965340,1.00000,246.32001,-0.89121,-2.03217,2.21900,1.36700,0.22300,0.64700,0.04400,216.07207,98.14000,-1.17287,96,0.02874,-0.16715,0.06388,-0.15430,-0.13483,0.95691,0.00000,0.13350,-0.49500,0.02874,-0.16715,0.06388,-0.15430,-0.13483,0.95691,0.00025,0.13588,-0.49448,0.00393,-0.04292,-0.20405
06/13/24 12:27:59.009499,1.00000,246.32001,-0.89121,-2.03217,2.21900,1.36700,0.22300,0.64700,0.04400,216.07207,98.14000,-1.17287,96,0.07665,-0.08198,0.08836,-0.07471,-0.11108,0.91821,-0.00150,0.13650,-0.49500,0.07665,-0.08198,0.08836,-0.07471,-0.11108,0.91821,-0.00162,0.13797,-0.49466,-0.05538,-0.10027,-0.22012
06/13/24 12:27:59.053326,1.00000,246.32001,-0.89121,-2.03217,2.21900,1.36700,0.22300,0.64700,0.04400,216.07207,98.14000,-1.17287,96,0.05642,-0.11498,-0.10114,-0.03479,-0.03619,0.92523,-0.01200,0.13800,-0.49500,0.05642,-0.11498,-0.10114,-0.03479,-0.03619,0.92523,-0.00987,0.13656,-0.49755,-0.12774,-0.10197,-0.18919
06/13/24 12:27:59.097488,1.00000,246.32001,-0.89121,-2.03217,2.21900,1.36700,0.22300,0.64700,0.04400,216.07207,98.14000,-1.17287,96,-0.07559,-0.05962,0.01490,-0.18872,-0.00159,0.96118,-0.01500,0.14100,-0.49350,-0.07559,-0.05962,0.01490,-0.18872,-0.00159,0.96118,-0.00946,0.13745,-0.49066,-0.02318,-0.02311,-0.06804
06/13/24 12:27:59.141670,1.00000,246.32001,-0.89121,-2.03217,2.21900,1.36700,0.22300,0.64700,0.04400,216.07207,98.14000,-1.17287,96,-0.24699,-0.06920,0.28532,-0.25842,-0.06537,1.08557,-0.00900,0.14100,-0.49350,-0.24699,-0.06920,0.28532,-0.25842,-0.06537,1.08557,-0.00931,0.13894,-0.49152,0.04910,0.11308,-0.09041
06/13/24 12:27:59.185490,1.00000,246.32001,-0.89121,-2.03217,2.21900,1.36700,0.22300,0.64700,0.04400,216.07207,98.14000,-1.17287,96,-0.01490,-0.15224,0.17779,-0.07007,-0.07758,1.04498,-0.01200,0.15000,-0.48750,-0.01490,-0.15224,0.17779,-0.07007,-0.07758,1.04498,-0.01163,0.14927,-0.48940,-0.07464,0.02770,-0.20295
06/13/24 12:27:59.229713,1.00000,246.32001,-0.89121,-2.03217,2.21900,1.36700,0.22300,0.64700,0.04400,216.07207,98.14000,-1.17287,96,0.21931,-0.22676,-0.14159,-0.06543,-0.04474,0.95996,-0.01050,0.14550,-0.48900,0.21931,-0.22676,-0.14159,-0.06543,-0.04474,0.95996,-0.01067,0.14546,-0.48875,-0.06015,-0.05114,-0.15445
06/13/24 12:27:59.273342,1.00000,246.32001,-0.89121,-2.03217,2.21900,1.36700,0.22300,0.64700,0.04400,216.07207,98.14000,-1.17287,96,0.18205,-0.18950,-0.12243,-0.13647,-0.01019,0.92578,-0.01650,0.13950,-0.49200,0.18205,-0.18950,-0.12243,-0.13647,-0.01019,0.92578,-0.01626,0.14350,-0.49283,-0.00932,-0.06762,-0.07983
06/13/24 12:27:59.317753,1.00000,246.32001,-0.89121,-2.03217,2.21900,1.36700,0.22300,0.64700,0.04400,216.07207,98.14000,-1.17287,96,0.00319,-0.15650,0.00958,-0.15186,0.05005,0.93604,-0.02100,0.13650,-0.49350,0.00319,-0.15650,0.00958,-0.15186,0.05005,0.93604,-0.01910,0.14187,-0.49235,-0.02968,-0.05121,-0.02551
06/13/24 12:27:59.361908,1.00000,246.32001,-0.89121,-2.03217,2.21900,1.36700,0.22300,0.64700,0.04400,216.07207,98.14000,-1.17287,96,-0.08836,0.03513,0.27999,-0.22888,0.01874,0.95697,-0.02700,0.13650,-0.49650,-0.08836,0.03513,0.27999,-0.22888,0.01874,0.95697,-0.01979,0.14151,-0.49278,0.04988,-0.01726,-0.01646
06/13/24 12:27:59.405514,1.00000,246.32001,-0.89121,-2.03217,2.21900,1.36700,0.22300,0.64700,0.04400,216.07207,98.14000,-1.17287,96,-0.11711,0.09049,0.47376,-0.24707,0.05090,1.00067,-0.02400,0.14850,-0.49350,-0.11711,0.09049,0.47376,-0.24707,0.05090,1.00067,-0.02143,0.14091,-0.49361,0.03631,0.03133,0.00347
06/13/24 12:27:59.449856,1.00000,246.32001,-0.89121,-2.03217,2.21900,1.36700,0.22300,0.64700,0.04400,216.07207,98.14000,-1.17287,96,0.07239,0.05855,0.72075,-0.23486,0.06757,0.97400,-0.01800,0.14700,-0.49200,0.07239,0.05855,0.72075,-0.23486,0.06757,0.97400,-0.02149,0.14149,-0.49371,0.02313,0.00390,0.00745
06/13/24 12:27:59.493527,1.00000,246.32001,-0.89121,-2.03217,2.21900,1.36700,0.22300,0.64700,0.04400,216.07207,98.14000,-1.17287,96,-0.12030,-0.04152,0.94645,-0.19336,-0.03210,0.90454,-0.01800,0.15000,-0.49350,-0.12030,-0.04152,0.94645,-0.19336,-0.03210,0.90454,-0.02029,0.14454,-0.49346,0.05969,-0.08132,-0.09531
06/13/24 12:27:59.537899,1.00000,246.32001,-0.89121,-2.03217,2.21900,1.36700,0.22300,0.64700,0.04400,216.07207,98.14000,-1.17287,96,-0.49611,-0.50569,0.79527,-0.12720,-0.27106,1.29034,-0.01350,0.15600,-0.49650,-0.49611,-0.50569,0.79527,-0.12720,-0.27106,1.29034,-0.01394,0.15672,-0.49654,0.07768,0.26643,-0.38046
06/13/24 12:27:59.582066,1.00000,246.32001,-0.89121,-2.03217,2.21900,1.36700,0.22300,0.64700,0.04400,216.07207,98.14000,-1.17287,96,0.52699,-0.16182,0.79634,-0.07666,-0.13226,0.89825,-0.02250,0.16350,-0.49050,0.52699,-0.16182,0.79634,-0.07666,-0.13226,0.89825,-0.01977,0.16450,-0.49140,0.02616,-0.11560,-0.21766
06/13/24 12:27:59.625641,1.00000,246.32001,-0.89121,-2.03217,2.21900,1.36700,0.22300,0.64700,0.04400,216.07207,98.14000,-1.17287,96,0.08091,0.06707,0.90067,-0.07996,0.11005,0.66528,-0.01050,0.15900,-0.50850,0.08091,0.06707,0.90067,-0.07996,0.11005,0.66528,-0.01256,0.16026,-0.50343,-0.05312,-0.32331,0.01933
06/13/24 12:27:59.669952,1.00000,246.32001,-0.89121,-2.03217,2.21900,1.36700,0.22300,0.64700,0.04400,216.07207,98.14000,-1.17287,96,-0.44927,-0.00106,0.67816,-0.06958,-0.11096,1.03583,-0.00750,0.15900,-0.49650,-0.44927,-0.00106,0.67816,-0.06958,-0.11096,1.03583,-0.00985,0.15660,-0.49988,-0.00901,0.01742,-0.23424
06/13/24 12:27:59.714096,1.00000,246.32001,-0.89121,-2.03217,2.21900,1.36700,0.22300,0.64700,0.04400,216.07207,98.14000,-1.17287,96,-0.04684,0.04258,0.47908,-0.16425,-0.10681,1.08966,-0.01050,0.16350,-0.49950,-0.04684,0.04258,0.47908,-0.16425,-0.10681,1.08966,-0.00954,0.16432,-0.49961,0.06209,0.08817,-0.19436
06/13/24 12:27:59.757687,1.00000,246.32001,-0.89121,-2.03217,2.21900,1.36700,0.22300,0.64700,0.04400,216.07207,98.14000,-1.17287,96,0.04791,0.06494,0.42478,-0.23663,-0.05164,0.94531,0.00150,0.17100,-0.50400,0.04791,0.06494,0.42478,-0.23663,-0.05164,0.94531,0.00009,0.17091,-0.50373,0.10366,-0.03469,-0.09849
06/13/24 12:27:59.802025,1.00000,246.32001,-0.89121,-2.03217,2.21900,1.36700,0.22300,0.64700,0.04400,216.07207,98.14000,-1.17287,96,-0.03939,-0.03087,0.57064,-0.17432,-0.07831,0.91443,-0.00450,0.18150,-0.51900,-0.03939,-0.03087,0.57064,-0.17432,-0.07831,0.91443,-0.00244,0.17738,-0.51736,0.05057,-0.07822,-0.14305
06/13/24 12:27:59.845638,1.00000,246.32001,-0.89121,-2.03217,2.21900,1.36700,0.22300,0.64700,0.04400,216.07207,98.14000,-1.17287,96,-0.12882,-0.10753,0.56638,-0.11829,-0.06573,0.92578,0.00150,0.18300,-0.51900,-0.12882,-0.10753,0.56638,-0.11829,-0.06573,0.92578,-0.00220,0.18238,-0.51824,-0.00588,-0.07667,-0.15105
06/13/24 12:27:59.889973,1.00000,246.32001,-0.89121,-2.03217,2.21900,1.36700,0.22300,0.64700,0.04400,216.07207,98.14000,-1.17287,96,-0.28425,-0.04684,0.62493,-0.15991,-0.10571,0.95697,0.00000,0.19500,-0.52500,-0.28425,-0.04684,0.62493,-0.15991,-0.10571,0.95697,-0.00086,0.19255,-0.52305,0.04155,-0.03846,-0.16202
06/13/24 12:27:59.934136,1.00000,246.32001,-0.89121,-2.03217,2.21900,1.36700,0.22300,0.64700,0.04400,216.07207,98.14000,-1.17287,96,-0.23954,0.05430,0.64729,-0.11926,-0.11127,0.96313,0.00150,0.20850,-0.51900,-0.23954,0.05430,0.64729,-0.11926,-0.11127,0.96313,-0.00129,0.20252,-0.52192,-0.00148,-0.03712,-0.16460
06/13/24 12:27:59.977749,1.00000,246.32001,-0.89121,-2.03217,2.21900,1.36700,0.22300,0.64700,0.04400,216.07207,98.14000,-1.17287,96,-0.25551,0.08730,0.50037,-0.06201,-0.13531,0.98615,0.01200,0.22050,-0.52950,-0.25551,0.08730,0.50037,-0.06201,-0.13531,0.98615,0.00956,0.21690,-0.52788,-0.05267,-0.02247,-0.19051
06/13/24 12:28:00.022099,1.00000,246.32001,-0.89121,-2.03217,2.21900,1.36700,0.22300,0.64700,0.04400,216.07207,98.14000,-1.17287,96,-0.25551,0.13308,0.31193,-0.05267,-0.12714,1.02399,0.01350,0.23100,-0.51750,-0.25551,0.13308,0.31193,-0.05267,-0.12714,1.02399,0.01393,0.22487,-0.51868,-0.07054,0.01651,-0.17095
06/13/24 12:28:00.065732,1.00000,246.32001,-0.89121,-2.03217,2.21900,1.36700,0.22300,0.64700,0.04400,216.07207,98.14000,-1.17287,96,-0.18311,0.08836,0.15437,-0.12250,-0.12610,1.08551,0.02550,0.23100,-0.51900,-0.18311,0.08836,0.15437,-0.12250,-0.12610,1.08551,0.01910,0.23012,-0.51800,-0.02279,0.08968,-0.14603
06/13/24 12:28:00.109969,1.00000,246.32001,-0.89121,-2.03217,2.21900,1.36700,0.22300,0.64700,0.04400,216.07207,98.14000,-1.17287,96,-0.09901,0.03726,0.11072,-0.16345,-0.10632,1.01379,0.03000,0.23550,-0.51900,-0.09901,0.03726,0.11072,-0.16345,-0.10632,1.01379,0.02072,0.23219,-0.51755,0.01867,0.02656,-0.10785
06/13/24 12:28:00.154400,1.00000,246.32001,-0.89121,-2.03217,2.21900,1.36700,0.22300,0.64700,0.04400,216.07207,98.14000,-1.17287,96,-0.02023,0.06175,0.12882,-0.18164,-0.07446,0.95807,0.02100,0.23550,-0.50850,-0.02023,0.06175,0.12882,-0.18164,-0.07446,0.95807,0.01918,0.23354,-0.51300,0.03546,-0.02506,-0.06837
06/13/24 12:28:00.197962,1.00000,246.32001,-0.89121,-2.03217,2.21900,1.36700,0.22300,0.64700,0.04400,216.07207,98.14000,-1.17287,96,0.00213,0.06920,0.17673,-0.16650,-0.04980,0.93341,0.02700,0.22200,-0.51300,0.00213,0.06920,0.17673,-0.16650,-0.04980,0.93341,0.02014,0.23270,-0.51251,0.01584,-0.05198,-0.04961
06/13/24 12:28:00.242285,1.00000,246.32001,-0.89121,-2.03217,2.21900,1.36700,0.22300,0.64700,0.04400,216.07207,98.14000,-1.17287,96,0.00426,0.08730,0.25444,-0.14386,-0.02271,0.93787,0.03450,0.21450,-0.50850,0.00426,0.08730,0.25444,-0.14386,-0.02271,0.93787,0.02078,0.23202,-0.51220,-0.01597,-0.05158,-0.03236
06/13/24 12:28:00.285824,1.00000,246.32001,-0.89121,-2.03217,2.21900,1.36700,0.22300,0.64700,0.04400,216.07207,98.14000,-1.17287,96,-0.03194,0.04365,0.20015,-0.16150,-0.06067,0.96130,0.03450,0.22500,-0.50550,-0.03194,0.04365,0.20015,-0.16150,-0.06067,0.96130,0.02190,0.23118,-0.51194,0.00492,-0.02575,-0.06839
06/13/24 12:28:00.329992,1.00000,246.32001,-0.89121,-2.03217,2.21900,1.36700,0.22300,0.64700,0.04400,216.07207,98.14000,-1.17287,96,-0.02768,0.03087,0.17460,-0.15106,-0.08203,0.98108,0.04350,0.21750,-0.50700,-0.02768,0.03087,0.17460,-0.15106,-0.08203,0.98108,0.02366,0.23014,-0.51141,-0.00401,-0.00842,-0.09391
06/13/24 12:28:00.374343,1.00000,246.32001,-0.89121,-2.03217,2.21900,1.36700,0.22300,0.64700,0.04400,216.07207,98.14000,-1.17287,96,-0.00745,0.02342,0.09262,-0.14325,-0.09149,0.96924,0.03600,0.22200,-0.50550,-0.00745,0.02342,0.09262,-0.14325,-0.09149,0.96924,0.03056,0.22765,-0.50758,-0.00746,-0.02171,-0.10584
06/13/24 12:28:00.418009,1.00000,246.32001,-0.89121,-2.03217,2.21900,1.36700,0.22300,0.64700,0.04400,216.07207,98.14000,-1.17287,96,-0.07878,0.02023,0.07239,-0.16620,-0.08978,0.98627,0.04200,0.21750,-0.50550,-0.07878,0.02023,0.07239,-0.16620,-0.08978,0.98627,0.03487,0.22613,-0.50732,0.01024,-0.00077,-0.09923
06/13/24 12:28:00.462232,1.00000,246.32001,-0.89121,-2.03217,2.21900,1.36700,0.22300,0.64700,0.04400,216.07207,98.14000,-1.17287,96,-0.04684,0.02449,0.08517,-0.17242,-0.08771,0.98804,0.04800,0.21750,-0.50250,-0.04684,0.02449,0.08517,-0.17242,-0.08771,0.98804,0.03616,0.22527,-0.50712,0.01398,0.00214,-0.09570
06/13/24 12:28:00.506003,1.00000,246.32001,-0.89121,-2.03217,2.21900,1.36700,0.22300,0.64700,0.04400,216.07207,98.14000,-1.17287,96,-0.02555,0.05962,0.11072,-0.18567,-0.09918,0.98608,0.04950,0.21750,-0.49800,-0.02555,0.05962,0.11072,-0.18567,-0.09918,0.98608,0.03850,0.22328,-0.50601,0.02719,0.00241,-0.10538
06/13/24 12:28:00.550200,1.00000,246.32001,-0.89121,-2.03217,2.21900,1.36700,0.22300,0.64700,0.04400,216.07207,98.14000,-1.17287,96,0.00000,0.00745,0.09475,-0.16132,-0.07367,0.97021,0.05700,0.21450,-0.50250,0.00000,0.00745,0.09475,-0.16132,-0.07367,0.97021,0.04097,0.22188,-0.50489,-0.00084,-0.01761,-0.08757
06/13/24 12:28:00.594533,1.00000,246.32001,-0.89121,-2.03217,2.21900,1.36700,0.22300,0.64700,0.04400,216.07207,98.14000,-1.17287,96,-0.01065,-0.00852,0.03194,-0.15704,-0.06891,0.96899,0.04950,0.21000,-0.49200,-0.01065,-0.00852,0.03194,-0.15704,-0.06891,0.96899,0.04534,0.21916,-0.50252,-0.00614,-0.01973,-0.08596
06/13/24 12:28:00.638150,1.00000,246.32001,-0.89121,-2.03217,2.21900,1.36700,0.22300,0.64700,0.04400,216.07207,98.14000,-1.17287,96,-0.03087,-0.00426,0.01384,-0.14996,-0.07275,0.98230,0.06300,0.20700,-0.50100,-0.03087,-0.00426,0.01384,-0.14996,-0.07275,0.98230,0.05122,0.21495,-0.49919,-0.01482,-0.00817,-0.09351
06/13/24 12:28:00.682298,1.00000,246.32001,-0.89121,-2.03217,2.21900,1.36700,0.22300,0.64700,0.04400,216.07207,98.14000,-1.17287,96,-0.01065,-0.02023,-0.06920,-0.14252,-0.06073,0.95691,0.06000,0.21300,-0.49200,-0.01065,-0.02023,-0.06920,-0.14252,-0.06073,0.95691,0.05558,0.21187,-0.49516,-0.01947,-0.03460,-0.08542
06/13/24 12:28:00.726666,1.00000,246.32001,-0.89121,-2.03217,2.21900,1.36700,0.22300,0.64700,0.04400,216.07207,98.14000,-1.17287,96,-0.07026,-0.02236,-0.12137,-0.17560,-0.06946,0.95447,0.04800,0.21450,-0.49650,-0.07026,-0.02236,-0.12137,-0.17560,-0.06946,0.95447,0.05975,0.21041,-0.49509,0.01448,-0.03117,-0.08847
06/13/24 12:28:00.770296,1.00000,246.32001,-0.89121,-2.03217,2.21900,1.36700,0.22300,0.64700,0.04400,216.07207,98.14000,-1.17287,96,-0.05855,-0.03726,-0.09369,-0.18921,-0.08173,0.97528,0.05550,0.20400,-0.48600,-0.05855,-0.03726,-0.09369,-0.18921,-0.08173,0.97528,0.05947,0.20958,-0.49437,0.02649,-0.00859,-0.10023
06/13/24 12:28:00.814477,1.00000,246.32001,-0.89121,-2.03217,2.21900,1.36700,0.22300,0.64700,0.04400,216.07207,98.14000,-1.17287,96,-0.02342,-0.02023,-0.03194,-0.18268,-0.07501,0.97278,0.05550,0.19950,-0.49050,-0.02342,-0.02023,-0.03194,-0.18268,-0.07501,0.97278,0.05898,0.20867,-0.49378,0.01877,-0.01227,-0.09666
06/13/24 12:28:00.858261,1.00000,246.32001,-0.89121,-2.03217,2.21900,1.36700,0.22300,0.64700,0.04400,216.07207,98.14000,-1.17287,96,-0.02555,-0.01384,-0.03300,-0.17157,-0.07117,0.97290,0.04950,0.19950,-0.48150,-0.02555,-0.01384,-0.03300,-0.17157,-0.07117,0.97290,0.05851,0.20840,-0.49336,0.00675,-0.01430,-0.09685
06/13/24 12:28:00.902456,1.00000,246.32001,-0.89121,-2.03217,2.21900,1.36700,0.22300,0.64700,0.04400,216.07207,98.14000,-1.17287,96,-0.01597,-0.01916,-0.03194,-0.17383,-0.06970,0.96649,0.05700,0.20400,-0.48600,-0.01597,-0.01916,-0.03194,-0.17383,-0.06970,0.96649,0.05802,0.20753,-0.49249,0.00913,-0.02027,-0.09601
06/13/24 12:28:00.946679,1.00000,246.32001,-0.89121,-2.03217,2.21900,1.36700,0.22300,0.64700,0.04400,216.07207,98.14000,-1.17287,96,-0.02768,-0.01703,0.01916,-0.17664,-0.07941,0.98077,0.05100,0.19500,-0.48450,-0.02768,-0.01703,0.01916,-0.17664,-0.07941,0.98077,0.05694,0.20583,-0.49095,0.01023,-0.00607,-0.10691
06/13/24 12:28:00.990436,1.00000,246.32001,-0.89121,-2.03217,2.21900,1.36700,0.22300,0.64700,0.04400,216.07207,98.14000,-1.17287,96,-0.03513,-0.02662,0.05642,-0.17010,-0.08069,0.98077,0.05100,0.19650,-0.48600,-0.03513,-0.02662,0.05642,-0.17010,-0.08069,0.98077,0.05477,0.20291,-0.48805,0.00338,-0.00747,-0.11063
06/13/24 12:28:01.034600,1.00000,246.32001,-0.89121,-2.03217,2.21900,1.36700,0.22300,0.64700,0.04400,216.07207,98.14000,-1.17287,96,-0.01065,-0.01916,0.06601,-0.14972,-0.08051,0.97186,0.05100,0.19950,-0.48300,-0.01065,-0.01916,0.06601,-0.14972,-0.08051,0.97186,0.05333,0.20153,-0.48655,-0.01470,-0.02024,-0.11517
06/13/24 12:28:01.078373,1.00000,246.32001,-0.89121,-2.03217,2.21900,1.36700,0.22300,0.64700,0.04400,216.07207,98.14000,-1.17287,96,-0.03194,-0.00745,0.05217,-0.15118,-0.07458,0.96564,0.05550,0.19650,-0.48000,-0.03194,-0.00745,0.05217,-0.15118,-0.07458,0.96564,0.05304,0.19996,-0.48398,-0.01291,-0.02596,-0.10932
06/13/24 12:28:01.122542,1.00000,246.32001,-0.89121,-2.03217,2.21900,1.36700,0.22300,0.64700,0.04400,216.07207,98.14000,-1.17287,96,-0.04365,-0.03620,0.05749,-0.14764,-0.08710,0.96161,0.05550,0.19500,-0.48300,-0.04365,-0.03620,0.05749,-0.14764,-0.08710,0.96161,0.05497,0.19831,-0.48398,-0.01279,-0.03100,-0.12225
06/13/24 12:28:01.166701,1.00000,246.32001,-0.89121,-2.03217,2.21900,1.36700,0.22300,0.64700,0.04400,216.07207,98.14000,-1.17287,96,-0.02555,0.00213,0.03194,-0.13928,-0.08423,0.97412,0.05700,0.19800,-0.48750,-0.02555,0.00213,0.03194,-0.13928,-0.08423,0.97412,0.05488,0.19781,-0.48499,-0.02243,-0.02007,-0.12103
06/13/24 12:28:01.210476,1.00000,246.32001,-0.89121,-2.03217,2.21900,1.36700,0.22300,0.64700,0.04400,216.07207,98.14000,-1.17287,96,-0.02874,0.01703,0.00319,-0.15448,-0.07935,0.97729,0.04800,0.19200,-0.48150,-0.02874,0.01703,0.00319,-0.15448,-0.07935,0.97729,0.05346,0.19578,-0.48265,-0.00759,-0.01397,-0.11378
06/13/24 12:28:01.254659,1.00000,246.32001,-0.89121,-2.03217,2.21900,1.36700,0.22300,0.64700,0.04400,216.07207,98.14000,-1.17287,96,-0.02981,-0.00426,-0.02449,-0.15198,-0.08777,0.96869,0.05550,0.18750,-0.47700,-0.02981,-0.00426,-0.02449,-0.15198,-0.08777,0.96869,0.05376,0.19381,-0.48147,-0.00588,-0.02313,-0.12189
06/13/24 12:28:01.298267,1.00000,246.32001,-0.89121,-2.03217,2.21900,1.36700,0.22300,0.64700,0.04400,216.07207,98.14000,-1.17287,96,-0.01916,-0.00426,-0.02662,-0.15088,-0.08307,0.97736,0.05550,0.20100,-0.47850,-0.01916,-0.00426,-0.02662,-0.15088,-0.08307,0.97736,0.05394,0.19507,-0.48100,-0.00845,-0.01462,-0.11764
06/13/24 12:28:01.342605,1.00000,246.32001,-0.89121,-2.03217,2.21900,1.36700,0.22300,0.64700,0.04400,216.07207,98.14000,-1.17287,96,-0.01810,0.02768,-0.01065,-0.15979,-0.08600,0.97235,0.05250,0.19350,-0.47550,-0.01810,0.02768,-0.01065,-0.15979,-0.08600,0.97235,0.05493,0.19317,-0.48035,0.00111,-0.01806,-0.11915
06/13/24 12:28:01.386775,1.00000,246.32001,-0.89121,-2.03217,2.21900,1.36700,0.22300,0.64700,0.04400,216.07207,98.14000,-1.17287,96,-0.02768,0.00745,-0.02555,-0.15356,-0.08875,0.96863,0.05250,0.19350,-0.47700,-0.02768,0.00745,-0.02555,-0.15356,-0.08875,0.96863,0.05741,0.19405,-0.47996,-0.00539,-0.02292,-0.12243
06/13/24 12:28:01.430380,1.00000,246.32001,-0.89121,-2.03217,2.21900,1.36700,0.22300,0.64700,0.04400,216.07207,98.14000,-1.17287,96,-0.04258,0.01171,-0.01384,-0.15955,-0.08466,0.97168,0.05550,0.19350,-0.47850,-0.04258,0.01171,-0.01384,-0.15955,-0.08466,0.97168,0.05655,0.19431,-0.47862,-0.00135,-0.01863,-0.11703
06/13/24 12:28:01.474700,1.00000,246.32001,-0.89121,-2.03217,2.21900,1.36700,0.22300,0.64700,0.04400,216.07207,98.14000,-1.17287,96,-0.00639,-0.00426,0.00426,-0.16528,-0.09296,0.97980,0.05400,0.20250,-0.48150,-0.00639,-0.00426,0.00426,-0.16528,-0.09296,0.97980,0.05568,0.19570,-0.47869,0.00339,-0.00984,-0.12466
06/13/24 12:28:01.518883,1.00000,246.32001,-0.89121,-2.03217,2.21900,1.36700,0.22300,0.64700,0.04400,216.07207,98.14000,-1.17287,96,-0.01278,0.00639,0.00958,-0.16016,-0.09100,0.96503,0.05550,0.18900,-0.47550,-0.01278,0.00639,0.00958,-0.16016,-0.09100,0.96503,0.05632,0.19499,-0.47798,-0.00028,-0.02521,-0.12247
06/13/24 12:28:01.562665,1.00000,246.32001,-0.89121,-2.03217,2.21900,1.36700,0.22300,0.64700,0.04400,216.07207,98.14000,-1.17287,96,-0.03407,-0.01597,-0.00852,-0.16168,-0.09174,0.97467,0.05250,0.19200,-0.47700,-0.03407,-0.01597,-0.00852,-0.16168,-0.09174,0.97467,0.05611,0.19488,-0.47668,-0.00075,-0.01543,-0.12313
06/13/24 12:28:01.606857,1.00000,246.32001,-0.89121,-2.03217,2.21900,1.36700,0.22300,0.64700,0.04400,216.07207,98.14000,-1.17287,96,-0.03833,-0.01278,0.00639,-0.15808,-0.09875,0.96729,0.05850,0.19950,-0.47700,-0.03833,-0.01278,0.00639,-0.15808,-0.09875,0.96729,0.05638,0.19506,-0.47726,-0.00211,-0.02345,-0.12935
06/13/24 12:28:01.650468,1.00000,246.32001,-0.89121,-2.03217,2.21900,1.36700,0.22300,0.64700,0.04400,216.07207,98.14000,-1.17287,96,-0.04471,-0.02449,0.00319,-0.16119,-0.10010,0.96991,0.05250,0.19800,-0.47400,-0.04471,-0.02449,0.00319,-0.16119,-0.10010,0.96991,0.05525,0.19455,-0.47538,0.00040,-0.02021,-0.12939
06/13/24 12:28:01.694815,1.00000,246.32001,-0.89121,-2.03217,2.21900,1.36700,0.22300,0.64700,0.04400,216.07207,98.14000,-1.17287,96,-0.01703,-0.01384,-0.00852,-0.15570,-0.10260,0.96948,0.06450,0.18900,-0.47700,-0.01703,-0.01384,-0.00852,-0.15570,-0.10260,0.96948,0.05655,0.19520,-0.47606,-0.00444,-0.02156,-0.13156
06/13/24 12:28:01.738974,1.00000,246.32001,-0.89121,-2.03217,2.21900,1.36700,0.22300,0.64700,0.04400,216.07207,98.14000,-1.17287,96,-0.02662,0.01065,-0.01490,-0.15198,-0.09991,0.96417,0.05700,0.20250,-0.46500,-0.02662,0.01065,-0.01490,-0.15198,-0.09991,0.96417,0.05708,0.19581,-0.47312,-0.00776,-0.02728,-0.12832
06/13/24 12:28:01.782600,1.00000,246.32001,-0.89121,-2.03217,2.21900,1.36700,0.22300,0.64700,0.04400,216.07207,98.14000,-1.17287,96,-0.02662,0.00958,-0.01597,-0.16144,-0.11157,0.96527,0.05550,0.20100,-0.47850,-0.02662,0.00958,-0.01597,-0.16144,-0.11157,0.96527,0.05553,0.19667,-0.47470,0.00316,-0.02456,-0.13697
06/13/24 12:28:01.826945,1.00000,246.32001,-0.89121,-2.03217,2.21900,1.36700,0.22300,0.64700,0.04400,216.07207,98.14000,-1.17287,96,-0.02874,0.02236,-0.01171,-0.16663,-0.10004,0.96936,0.05550,0.19350,-0.47100,-0.02874,0.02236,-0.01171,-0.16663,-0.10004,0.96936,0.05528,0.19664,-0.47350,0.00489,-0.01909,-0.12340
06/13/24 12:28:01.870580,1.00000,246.32001,-0.89121,-2.03217,2.21900,1.36700,0.22300,0.64700,0.04400,216.07207,98.14000,-1.17287,96,-0.01490,0.02023,-0.00852,-0.17126,-0.10577,0.96564,0.05700,0.19800,-0.47700,-0.01490,0.02023,-0.00852,-0.17126,-0.10577,0.96564,0.05508,0.19778,-0.47458,0.01000,-0.02191,-0.12731
06/13/24 12:28:01.915006,1.00000,246.32001,-0.89121,-2.03217,2.21900,1.36700,0.22300,0.64700,0.04400,216.07207,98.14000,-1.17287,96,-0.01597,0.04578,0.02981,-0.16577,-0.11328,0.97961,0.05250,0.20100,-0.47100,-0.01597,0.04578,0.02981,-0.16577,-0.11328,0.97961,0.05613,0.19743,-0.47489,0.00144,-0.00925,-0.13554
06/13/24 12:28:01.959245,1.00000,246.32001,-0.89121,-2.03217,2.21900,1.36700,0.22300,0.64700,0.04400,216.07207,98.14000,-1.17287,96,-0.01171,0.03726,0.02662,-0.16174,-0.11188,0.96558,0.06000,0.20250,-0.46950,-0.01171,0.03726,0.02662,-0.16174,-0.11188,0.96558,0.05548,0.19824,-0.47300,-0.00171,-0.02371,-0.13365
06/13/24 12:28:02.002902,1.00000,246.32001,-0.89121,-2.03217,2.21900,1.36700,0.22300,0.64700,0.04400,216.07207,98.14000,-1.17287,96,-0.02768,0.01703,-0.00426,-0.14941,-0.09607,0.96094,0.05850,0.20100,-0.46950,-0.02768,0.01703,-0.00426,-0.14941,-0.09607,0.96094,0.05538,0.19870,-0.47147,-0.01555,-0.03011,-0.11844
06/13/24 12:28:02.047331,1.00000,246.32001,-0.89121,-2.03217,2.21900,1.36700,0.22300,0.64700,0.04400,216.07207,98.14000,-1.17287,96,-0.06920,0.01278,-0.01703,-0.16516,-0.10486,0.97626,0.05550,0.19350,-0.47700,-0.06920,0.01278,-0.01703,-0.16516,-0.10486,0.97626,0.05645,0.19771,-0.47297,-0.00116,-0.01202,-0.12347
06/13/24 12:28:02.091502,1.00000,246.32001,-0.89121,-2.03217,2.21900,1.36700,0.22300,0.64700,0.04400,216.07207,98.14000,-1.17287,96,-0.02129,0.00000,0.00958,-0.17047,-0.12158,0.97919,0.05700,0.20400,-0.47850,-0.02129,0.00000,0.00958,-0.17047,-0.12158,0.97919,0.05621,0.19966,-0.47453,0.00669,-0.00836,-0.13878
06/13/24 12:28:02.135165,1.00000,246.32001,-0.89121,-2.03217,2.21900,1.36700,0.22300,0.64700,0.04400,216.07207,98.14000,-1.17287,96,0.01171,-0.00745,0.02662,-0.15814,-0.11859,0.96838,0.05250,0.20400,-0.47100,0.01171,-0.00745,0.02662,-0.15814,-0.11859,0.96838,0.05360,0.20218,-0.47259,-0.00355,-0.02113,-0.13657
06/13/24 12:28:02.179548,1.00000,246.32001,-0.89121,-2.03217,2.21900,1.36700,0.22300,0.64700,0.04400,216.07207,98.14000,-1.17287,96,0.01065,0.00000,0.01703,-0.15417,-0.11249,0.96820,0.05250,0.20100,-0.47550,0.01065,0.00000,0.01703,-0.15417,-0.11249,0.96820,0.05492,0.20168,-0.47327,-0.00788,-0.02189,-0.13070
06/13/24 12:28:02.223254,1.00000,246.32001,-0.89121,-2.03217,2.21900,1.36700,0.22300,0.64700,0.04400,216.07207,98.14000,-1.17287,96,-0.00213,-0.02342,0.02129,-0.15594,-0.11157,0.96735,0.05400,0.20100,-0.47250,-0.00213,-0.02342,0.02129,-0.15594,-0.11157,0.96735,0.05502,0.20121,-0.47250,-0.00526,-0.02232,-0.12899
