# Data format: "%int(Month)/%int(Day)/%int(Year) %int(Hours):%int(Minutes):%float(Seconds) %float(StepIndex),%float(StepHeading),%float(StepDistanceX),%float(StepDistanceY),%float(StepDistance),%float(StepTime),%float(StepAmplitude),%float(StepDutyCucle),%float(StepRatio),%float(Altitude),%float(Confidence),%float(AltitudeOffset) %int(BatteryLevel) %float(RawGyroX),%float(RawGyroY),%float(RawGyroZ) %float(RawAccelX),%float(RawAccelY),%float(RawAccelZ) %float(RawCompassX),%float(RawCompassY),%float(RawCompassZ) %float(CorrectedGyroX),%float(CorrectedGyroY),%float(CorrectedGyroZ) %float(CorrectedAccelX),%float(CorrectedAccelY),%float(CorrectedAccelZ) %float(CorrectedCompassX),%float(CorrectedCompassY),%float(CorrectedCompassZ) %float(LinearAccelX),%float(LinearAccelY),%float(LinearAccelZ)"
06/24/24 13:39:10.790742 0.00000,0.00000,0.00000,0.00000,0.00000,0.00000,0.00000,0.00000,0.00000,0.00000,0.00000,0.00000 100 -0.96135,0.11498,-2.29958 0.08038,0.63214,0.53589 -0.31650,-0.52950,-0.26250 -0.96135,0.11498,-2.29958 0.08038,0.63214,0.53589 -0.28402,-0.53433,-0.28545 0.02553,-0.16815,-0.02469
06/24/24 13:39:10.834403 0.00000,0.00000,0.00000,0.00000,0.00000,0.00000,0.00000,0.00000,0.00000,0.00000,0.00000,0.00000 100 -0.17566,-0.01490,-0.64942 0.04425,0.68097,0.60248 -0.28650,-0.54450,-0.27300 -0.17566,-0.01490,-0.64942 0.04425,0.68097,0.60248 -0.28877,-0.54268,-0.27232 0.07749,-0.15888,-0.33936
06/24/24 13:39:10.877741 0.00000,0.00000,0.00000,0.00000,0.00000,0.00000,0.00000,0.00000,0.00000,0.00000,0.00000,0.00000 100 0.12030,-0.10433,-0.04152 0.06873,0.77051,0.64966 -0.28050,-0.54300,-0.27600 0.12030,-0.10433,-0.04152 0.06873,0.77051,0.64966 -0.28043,-0.54305,-0.27603 0.04969,-0.03677,-0.30029
06/24/24 13:39:10.921528 0.00000,0.00000,0.00000,0.00000,0.00000,0.00000,0.00000,0.00000,0.00000,0.00000,0.00000,0.00000 100 0.10859,0.06494,0.01278 0.06628,0.74969,0.58783 -0.28350,-0.54300,-0.27900 0.10859,0.06494,0.01278 0.06628,0.74969,0.58783 -0.28339,-0.54294,-0.27901 0.00528,-0.07337,-0.23088
06/24/24 13:39:10.964967 0.00000,0.00000,0.00000,0.00000,0.00000,0.00000,0.00000,0.00000,0.00000,0.00000,0.00000,0.00000 100 -0.04046,0.02236,-0.03939 0.04474,0.75964,0.61084 -0.27750,-0.54150,-0.27600 -0.04046,0.02236,-0.03939 0.04474,0.75964,0.61084 -0.27660,-0.54332,-0.27513 -0.00796,-0.03785,-0.16242
06/24/24 13:39:11.008767 0.00000,0.00000,0.00000,0.00000,0.00000,0.00000,0.00000,0.00000,0.00000,0.00000,0.00000,0.00000 100 -0.00745,-0.08091,-0.00958 0.06860,0.77106,0.62762 -0.27300,-0.54000,-0.27300 -0.00745,-0.08091,-0.00958 0.06860,0.77106,0.62762 -0.27497,-0.54220,-0.27377 0.00264,-0.01390,-0.14403
06/24/24 13:39:11.055021 0.00000,0.00000,0.00000,0.00000,0.00000,0.00000,0.00000,0.00000,0.00000,0.00000,0.00000,0.00000 100 0.04046,0.00745,-0.07239 0.04224,0.75903,0.59552 -0.27300,-0.54150,-0.27300 0.04046,0.00745,-0.07239 0.04224,0.75903,0.59552 -0.27917,-0.54245,-0.27559 -0.02815,-0.04054,-0.10584
06/24/24 13:39:11.098282 0.00000,0.00000,0.00000,0.00000,0.00000,0.00000,0.00000,0.00000,0.00000,0.00000,0.00000,0.00000 100 -0.01384,0.00958,-0.03726 0.04865,0.77942,0.62207 -0.28050,-0.54450,-0.28200 -0.01384,0.00958,-0.03726 0.04865,0.77942,0.62207 -0.27815,-0.54300,-0.28033 -0.02188,-0.00599,-0.09110
06/24/24 13:39:11.142027 0.00000,0.00000,0.00000,0.00000,0.00000,0.00000,0.00000,0.00000,0.00000,0.00000,0.00000,0.00000 100 0.06281,-0.01384,-0.04684 0.06116,0.74542,0.60730 -0.27750,-0.54450,-0.27600 0.06281,-0.01384,-0.04684 0.06116,0.74542,0.60730 -0.27873,-0.54585,-0.27761 -0.00556,-0.03995,-0.08054
06/24/24 13:39:11.185473 0.00000,0.00000,0.00000,0.00000,0.00000,0.00000,0.00000,0.00000,0.00000,0.00000,0.00000,0.00000 100 0.00319,0.03087,-0.01278 0.04474,0.77051,0.61914 -0.27600,-0.53700,-0.28050 0.00319,0.03087,-0.01278 0.04474,0.77051,0.61914 -0.27733,-0.54155,-0.27638 -0.02190,-0.01270,-0.06139
06/24/24 13:39:11.229144 0.00000,0.00000,0.00000,0.00000,0.00000,0.00000,0.00000,0.00000,0.00000,0.00000,0.00000,0.00000 100 0.00000,0.02449,0.02023 0.05688,0.75903,0.60583 -0.27450,-0.54150,-0.27900 0.00000,0.02449,0.02023 0.05688,0.75903,0.60583 -0.27886,-0.54077,-0.27575 -0.01634,-0.02951,-0.06553
06/24/24 13:39:11.272855 0.00000,0.00000,0.00000,0.00000,0.00000,0.00000,0.00000,0.00000,0.00000,0.00000,0.00000,0.00000 100 0.02236,-0.03300,0.07239 0.04846,0.76294,0.60791 -0.26850,-0.54450,-0.27450 0.02236,-0.03300,0.07239 0.04846,0.76294,0.60791 -0.27480,-0.54383,-0.27731 -0.02216,-0.02494,-0.05233
06/24/24 13:39:11.316036 0.00000,0.00000,0.00000,0.00000,0.00000,0.00000,0.00000,0.00000,0.00000,0.00000,0.00000,0.00000 100 -0.00213,0.08730,0.00319 0.04694,0.75439,0.59888 -0.27900,-0.54300,-0.27900 -0.00213,0.08730,0.00319 0.04694,0.75439,0.59888 -0.27552,-0.54341,-0.27681 -0.02372,-0.03713,-0.04777
06/24/24 13:39:11.359922 0.00000,0.00000,0.00000,0.00000,0.00000,0.00000,0.00000,0.00000,0.00000,0.00000,0.00000,0.00000 100 -0.02768,-0.00745,0.05855 0.05927,0.77991,0.61957 -0.27900,-0.54900,-0.27750 -0.02768,-0.00745,0.05855 0.05927,0.77991,0.61957 -0.27613,-0.54404,-0.27807 -0.01803,-0.00371,-0.05214
06/24/24 13:39:11.403162 0.00000,0.00000,0.00000,0.00000,0.00000,0.00000,0.00000,0.00000,0.00000,0.00000,0.00000,0.00000 100 -0.00958,0.03194,0.01490 0.04675,0.76825,0.61560 -0.27900,-0.54600,-0.27750 -0.00958,0.03194,0.01490 0.04675,0.76825,0.61560 -0.27669,-0.54439,-0.27765 -0.02059,-0.01537,-0.03792
06/24/24 13:39:11.446901 0.00000,0.00000,0.00000,0.00000,0.00000,0.00000,0.00000,0.00000,0.00000,0.00000,0.00000,0.00000 100 0.02981,0.02236,0.06388 0.04980,0.75842,0.60413 -0.27900,-0.54300,-0.27750 0.02981,0.02236,0.06388 0.04980,0.75842,0.60413 -0.27708,-0.54430,-0.27795 -0.02018,-0.03010,-0.03917
06/24/24 13:39:11.490817 0.00000,0.00000,0.00000,0.00000,0.00000,0.00000,0.00000,0.00000,0.00000,0.00000,0.00000,0.00000 100 -0.06068,0.04046,0.05962 0.06140,0.76910,0.61450 -0.28050,-0.54150,-0.27450 -0.06068,0.04046,0.05962 0.06140,0.76910,0.61450 -0.27743,-0.54411,-0.27744 -0.01338,-0.01483,-0.04653
06/24/24 13:39:11.534090 0.00000,0.00000,0.00000,0.00000,0.00000,0.00000,0.00000,0.00000,0.00000,0.00000,0.00000,0.00000 100 -0.03300,0.09049,0.02342 0.05286,0.75128,0.58167 -0.28050,-0.53700,-0.28500 -0.03300,0.09049,0.02342 0.05286,0.75128,0.58167 -0.27801,-0.54297,-0.27849 -0.02892,-0.04997,-0.04649
06/24/24 13:39:11.577846 0.00000,0.00000,0.00000,0.00000,0.00000,0.00000,0.00000,0.00000,0.00000,0.00000,0.00000,0.00000 100 -0.08836,-0.00958,0.07239 0.06708,0.76636,0.62201 -0.28350,-0.53700,-0.27900 -0.08836,-0.00958,0.07239 0.06708,0.76636,0.62201 -0.27929,-0.54166,-0.27957 -0.00503,-0.01173,-0.04475
06/24/24 13:39:11.621317 0.00000,0.00000,0.00000,0.00000,0.00000,0.00000,0.00000,0.00000,0.00000,0.00000,0.00000,0.00000 100 -0.06920,0.07346,0.00426 0.05835,0.74500,0.60358 -0.27900,-0.54300,-0.28800 -0.06920,0.07346,0.00426 0.05835,0.74500,0.60358 -0.27951,-0.54181,-0.27973 -0.01005,-0.04040,-0.04231
06/24/24 13:39:11.665091 0.00000,0.00000,0.00000,0.00000,0.00000,0.00000,0.00000,0.00000,0.00000,0.00000,0.00000,0.00000 100 -0.01065,0.02449,0.03833 0.06891,0.77563,0.64124 -0.28500,-0.53850,-0.27900 -0.01065,0.02449,0.03833 0.06891,0.77563,0.64124 -0.27958,-0.54171,-0.28009 0.00238,0.00783,-0.04267
06/24/24 13:39:11.708896 0.00000,0.00000,0.00000,0.00000,0.00000,0.00000,0.00000,0.00000,0.00000,0.00000,0.00000,0.00000 100 -0.00852,0.02981,-0.00106 0.03705,0.74652,0.59894 -0.28200,-0.53250,-0.28050 -0.00852,0.02981,-0.00106 0.03705,0.74652,0.59894 -0.28030,-0.54031,-0.28053 -0.02191,-0.04276,-0.02466
06/24/24 13:39:11.752383 0.00000,0.00000,0.00000,0.00000,0.00000,0.00000,0.00000,0.00000,0.00000,0.00000,0.00000,0.00000 100 -0.04791,0.06068,-0.00426 0.05756,0.76917,0.63177 -0.27750,-0.54300,-0.27900 -0.04791,0.06068,-0.00426 0.05756,0.76917,0.63177 -0.28043,-0.54019,-0.28097 -0.00365,-0.00357,-0.03444
06/24/24 13:39:11.796168 0.00000,0.00000,0.00000,0.00000,0.00000,0.00000,0.00000,0.00000,0.00000,0.00000,0.00000,0.00000 100 -0.01171,-0.01065,0.03939 0.06342,0.74561,0.61475 -0.28050,-0.54300,-0.28500 -0.01171,-0.01065,0.03939 0.06342,0.74561,0.61475 -0.28032,-0.54029,-0.28099 0.00238,-0.03237,-0.03933
06/24/24 13:39:11.839445 0.00000,0.00000,0.00000,0.00000,0.00000,0.00000,0.00000,0.00000,0.00000,0.00000,0.00000,0.00000 100 -0.04897,0.05323,-0.00852 0.03973,0.76727,0.63855 -0.27750,-0.53700,-0.28950 -0.04897,0.05323,-0.00852 0.03973,0.76727,0.63855 -0.28011,-0.54015,-0.28128 -0.00564,-0.00115,-0.01722
06/24/24 13:39:11.883378 0.00000,0.00000,0.00000,0.00000,0.00000,0.00000,0.00000,0.00000,0.00000,0.00000,0.00000,0.00000 100 -0.13414,0.00213,0.07346 0.06592,0.74908,0.59869 -0.28800,-0.53550,-0.29250 -0.13414,0.00213,0.07346 0.06592,0.74908,0.59869 -0.28080,-0.53931,-0.28279 -0.01164,-0.04017,-0.04991
06/24/24 13:39:11.927146 0.00000,0.00000,0.00000,0.00000,0.00000,0.00000,0.00000,0.00000,0.00000,0.00000,0.00000,0.00000 100 -0.16502,0.14692,-0.02768 0.05798,0.74188,0.64337 -0.28050,-0.53850,-0.28950 -0.16502,0.14692,-0.02768 0.05798,0.74188,0.64337 -0.28084,-0.53912,-0.28345 0.01327,-0.01679,-0.02837
06/24/24 13:39:11.970427 0.00000,0.00000,0.00000,0.00000,0.00000,0.00000,0.00000,0.00000,0.00000,0.00000,0.00000,0.00000 100 -0.27254,0.06920,0.06707 0.05414,0.74921,0.60437 -0.27750,-0.53400,-0.29550 -0.27254,0.06920,0.06707 0.05414,0.74921,0.60437 -0.28075,-0.53883,-0.28433 -0.02092,-0.03708,-0.04307
06/24/24 13:39:12.014311 0.00000,0.00000,0.00000,0.00000,0.00000,0.00000,0.00000,0.00000,0.00000,0.00000,0.00000,0.00000 100 -0.25764,0.20121,0.00852 0.04797,0.74689,0.64600 -0.27750,-0.52650,-0.29850 -0.25764,0.20121,0.00852 0.04797,0.74689,0.64600 -0.28064,-0.53849,-0.28522 -0.00192,-0.01175,-0.02849
06/24/24 13:39:12.057560 0.00000,0.00000,0.00000,0.00000,0.00000,0.00000,0.00000,0.00000,0.00000,0.00000,0.00000,0.00000 100 -0.11285,0.00000,0.05962 0.05463,0.73895,0.67676 -0.27900,-0.53250,-0.30450 -0.11285,0.00000,0.05962 0.05463,0.73895,0.67676 -0.28065,-0.53809,-0.28651 0.02597,0.00299,-0.01930
06/24/24 13:39:12.101307 0.00000,0.00000,0.00000,0.00000,0.00000,0.00000,0.00000,0.00000,0.00000,0.00000,0.00000,0.00000 100 -0.09049,0.11604,-0.01916 0.06421,0.71411,0.65265 -0.28650,-0.53100,-0.30600 -0.09049,0.11604,-0.01916 0.06421,0.71411,0.65265 -0.28088,-0.53758,-0.28789 0.02773,-0.03144,-0.03389
06/24/24 13:39:12.145065 0.00000,0.00000,0.00000,0.00000,0.00000,0.00000,0.00000,0.00000,0.00000,0.00000,0.00000,0.00000 100 -0.17140,0.02236,0.02342 0.04620,0.72876,0.66827 -0.28200,-0.52800,-0.31650 -0.17140,0.02236,0.02342 0.04620,0.72876,0.66827 -0.28097,-0.53701,-0.28967 0.01973,-0.01045,-0.01505
06/24/24 13:39:12.188542 0.00000,0.00000,0.00000,0.00000,0.00000,0.00000,0.00000,0.00000,0.00000,0.00000,0.00000,0.00000 100 -0.12030,0.07133,-0.02981 0.04181,0.69464,0.65155 -0.28200,-0.53100,-0.31350 -0.12030,0.07133,-0.02981 0.04181,0.69464,0.65155 -0.28092,-0.53655,-0.29175 0.02350,-0.04705,-0.01136
06/24/24 13:39:12.232307 0.00000,0.00000,0.00000,0.00000,0.00000,0.00000,0.00000,0.00000,0.00000,0.00000,0.00000,0.00000 100 -0.02023,0.06388,-0.03407 0.02777,0.72290,0.68811 -0.27750,-0.52800,-0.32250 -0.02023,0.06388,-0.03407 0.02777,0.72290,0.68811 -0.28062,-0.53597,-0.29372 0.02702,-0.00196,0.00574
06/24/24 13:39:12.275577 0.00000,0.00000,0.00000,0.00000,0.00000,0.00000,0.00000,0.00000,0.00000,0.00000,0.00000,0.00000 100 0.04684,0.05855,0.05855 0.04205,0.72876,0.68170 -0.27900,-0.53250,-0.31950 0.04684,0.05855,0.05855 0.04205,0.72876,0.68170 -0.28058,-0.53516,-0.29580 0.02858,-0.00167,-0.00959
06/24/24 13:39:12.319476 0.00000,0.00000,0.00000,0.00000,0.00000,0.00000,0.00000,0.00000,0.00000,0.00000,0.00000,0.00000 100 -0.41307,0.15224,0.03194 0.01855,0.66083,0.65009 -0.27750,-0.52500,-0.32250 -0.41307,0.15224,0.03194 0.01855,0.66083,0.65009 -0.28066,-0.53445,-0.29749 0.03187,-0.07350,0.01509
06/24/24 13:39:12.363157 0.00000,0.00000,0.00000,0.00000,0.00000,0.00000,0.00000,0.00000,0.00000,0.00000,0.00000,0.00000 100 -0.07026,-0.04046,0.03513 0.05359,0.72235,0.69000 -0.27900,-0.52650,-0.32700 -0.07026,-0.04046,0.03513 0.05359,0.72235,0.69000 -0.28037,-0.53383,-0.29970 0.03277,-0.00042,-0.02320
06/24/24 13:39:12.406388 0.00000,0.00000,0.00000,0.00000,0.00000,0.00000,0.00000,0.00000,0.00000,0.00000,0.00000,0.00000 100 -0.19802,0.09795,0.04365 0.04639,0.67755,0.67206 -0.27300,-0.52350,-0.32550 -0.19802,0.09795,0.04365 0.04639,0.67755,0.67206 -0.27992,-0.53312,-0.30163 0.04006,-0.04546,-0.01198
06/24/24 13:39:12.450274 0.00000,0.00000,0.00000,0.00000,0.00000,0.00000,0.00000,0.00000,0.00000,0.00000,0.00000,0.00000 100 -0.03300,0.03194,-0.02236 0.03870,0.70020,0.70300 -0.28200,-0.52200,-0.33600 -0.03300,0.03194,-0.02236 0.03870,0.70020,0.70300 -0.27985,-0.53229,-0.30387 0.04464,-0.00804,-0.00061
06/24/24 13:39:12.493518 0.00000,0.00000,0.00000,0.00000,0.00000,0.00000,0.00000,0.00000,0.00000,0.00000,0.00000,0.00000 100 0.08198,-0.02449,0.04471 0.03418,0.68982,0.67859 -0.27600,-0.52200,-0.33450 0.08198,-0.02449,0.04471 0.03418,0.68982,0.67859 -0.27975,-0.53155,-0.30604 0.03463,-0.03237,-0.00084
06/24/24 13:39:12.537237 0.00000,0.00000,0.00000,0.00000,0.00000,0.00000,0.00000,0.00000,0.00000,0.00000,0.00000,0.00000 100 -0.14585,0.07559,-0.03087 0.01990,0.69806,0.70557 -0.27150,-0.52200,-0.32700 -0.14585,0.07559,-0.03087 0.01990,0.69806,0.70557 -0.27931,-0.53067,-0.30809 0.03981,-0.00824,0.01801
06/24/24 13:39:12.581133 0.00000,0.00000,0.00000,0.00000,0.00000,0.00000,0.00000,0.00000,0.00000,0.00000,0.00000,0.00000 100 -0.15011,0.05430,-0.01703 0.03857,0.68701,0.69830 -0.27600,-0.52050,-0.33450 -0.15011,0.05430,-0.01703 0.03857,0.68701,0.69830 -0.27906,-0.52986,-0.31002 0.04553,-0.02070,-0.00296
06/24/24 13:39:12.624321 0.00000,0.00000,0.00000,0.00000,0.00000,0.00000,0.00000,0.00000,0.00000,0.00000,0.00000,0.00000 100 -0.21718,0.06175,0.05536 0.00269,0.68341,0.74146 -0.27300,-0.51300,-0.34200 -0.21718,0.06175,0.05536 0.00269,0.68341,0.74146 -0.27891,-0.52868,-0.31213 0.05434,0.00607,0.04114
06/24/24 13:39:12.668026 0.00000,0.00000,0.00000,0.00000,0.00000,0.00000,0.00000,0.00000,0.00000,0.00000,0.00000,0.00000 100 -0.01278,0.07026,0.04365 0.03284,0.66382,0.68481 -0.27600,-0.51150,-0.34650 -0.01278,0.07026,0.04365 0.03284,0.66382,0.68481 -0.27840,-0.52753,-0.31464 0.03982,-0.04652,-0.00101
06/24/24 13:39:12.711240 0.00000,0.00000,0.00000,0.00000,0.00000,0.00000,0.00000,0.00000,0.00000,0.00000,0.00000,0.00000 100 -0.23315,0.20760,-0.19589 -0.00397,0.69269,0.71851 -0.28200,-0.51750,-0.34650 -0.23315,0.20760,-0.19589 -0.00397,0.69269,0.71851 -0.27856,-0.52646,-0.31685 0.02606,-0.00274,0.02948
06/24/24 13:39:12.755149 0.00000,0.00000,0.00000,0.00000,0.00000,0.00000,0.00000,0.00000,0.00000,0.00000,0.00000,0.00000 100 -0.99755,0.35665,-0.31513 -0.07660,0.65192,0.66101 -0.27300,-0.51000,-0.36150 -0.99755,0.35665,-0.31513 -0.07660,0.65192,0.66101 -0.27697,-0.52172,-0.32857 -0.03706,-0.07166,0.06785
06/24/24 13:39:12.798482 0.00000,0.00000,0.00000,0.00000,0.00000,0.00000,0.00000,0.00000,0.00000,0.00000,0.00000,0.00000 100 -0.37262,-0.16289,0.04152 -0.10559,0.66608,0.66309 -0.27300,-0.50550,-0.36750 -0.37262,-0.16289,0.04152 -0.10559,0.66608,0.66309 -0.27177,-0.50707,-0.36606 -0.07821,-0.06086,0.07996
06/24/24 13:39:12.842296 0.00000,0.00000,0.00000,0.00000,0.00000,0.00000,0.00000,0.00000,0.00000,0.00000,0.00000,0.00000 100 1.51815,-0.04365,0.12988 0.08685,0.69348,0.70020 -0.28800,-0.50850,-0.34950 1.51815,-0.04365,0.12988 0.08685,0.69348,0.70020 -0.27251,-0.50631,-0.36688 0.07799,-0.01438,-0.03462
06/24/24 13:39:12.886278 0.00000,0.00000,0.00000,0.00000,0.00000,0.00000,0.00000,0.00000,0.00000,0.00000,0.00000,0.00000 100 0.18418,0.43330,-0.45353 0.26788,0.61414,0.80603 -0.28350,-0.52050,-0.32850 0.18418,0.43330,-0.45353 0.26788,0.61414,0.80603 -0.28506,-0.52136,-0.32720 0.27892,-0.00280,-0.16249
06/24/24 13:39:12.929611 0.00000,0.00000,0.00000,0.00000,0.00000,0.00000,0.00000,0.00000,0.00000,0.00000,0.00000,0.00000 100 -1.02842,0.71117,-0.41520 0.15961,0.80847,1.09790 -0.27000,-0.52050,-0.33450 -1.02842,0.71117,-0.41520 0.15961,0.80847,1.09790 -0.27012,-0.52114,-0.33353 0.27035,0.34407,-0.06982
06/24/24 13:39:12.973413 0.00000,0.00000,0.00000,0.00000,0.00000,0.00000,0.00000,0.00000,0.00000,0.00000,0.00000,0.00000 100 -0.49398,0.76333,-0.17566 0.05048,0.97632,1.33582 -0.26400,-0.51750,-0.34950 -0.49398,0.76333,-0.17566 0.05048,0.97632,1.33582 -0.26342,-0.51841,-0.34918 0.23720,0.63809,-0.02333
06/24/24 13:39:13.016914 0.00000,0.00000,0.00000,0.00000,0.00000,0.00000,0.00000,0.00000,0.00000,0.00000,0.00000,0.00000 100 -0.13414,0.69839,-0.10327 -0.14789,0.92078,1.25922 -0.25350,-0.51450,-0.36750 -0.13414,0.69839,-0.10327 -0.14789,0.92078,1.25922 -0.25431,-0.51981,-0.36239 0.13479,0.55656,0.11953
06/24/24 13:39:13.060788 0.00000,0.00000,0.00000,0.00000,0.00000,0.00000,0.00000,0.00000,0.00000,0.00000,0.00000,0.00000 100 0.28106,0.86766,-0.14159 -0.15704,0.71399,1.18750 -0.24150,-0.51750,-0.37350 0.28106,0.86766,-0.14159 -0.15704,0.71399,1.18750 -0.24273,-0.51701,-0.37287 0.25435,0.36438,0.13551
06/24/24 13:39:13.104681 0.00000,0.00000,0.00000,0.00000,0.00000,0.00000,0.00000,0.00000,0.00000,0.00000,0.00000,0.00000 100 0.43649,0.77611,-0.13734 -0.14252,0.48407,0.78021 -0.22950,-0.51750,-0.36300 0.43649,0.77611,-0.13734 -0.14252,0.48407,0.78021 -0.23014,-0.51695,-0.36376 0.17317,-0.09227,0.09702
06/24/24 13:39:13.148273 0.00000,0.00000,0.00000,0.00000,0.00000,0.00000,0.00000,0.00000,0.00000,0.00000,0.00000,0.00000 100 -0.31193,0.81124,0.40775 -0.17487,0.28046,0.05090 -0.22800,-0.51300,-0.36600 -0.31193,0.81124,0.40775 -0.17487,0.28046,0.05090 -0.22701,-0.51445,-0.36538 -0.20093,-0.74505,0.08033
06/24/24 13:39:13.192119 0.00000,0.00000,0.00000,0.00000,0.00000,0.00000,0.00000,0.00000,0.00000,0.00000,0.00000,0.00000 100 -1.19557,-0.35132,0.23635 -0.23944,0.30829,0.84979 -0.22500,-0.50400,-0.38100 -1.19557,-0.35132,0.23635 -0.23944,0.30829,0.84979 -0.22521,-0.50471,-0.37952 0.28168,-0.13905,0.23226
06/24/24 13:39:13.235524 0.00000,0.00000,0.00000,0.00000,0.00000,0.00000,0.00000,0.00000,0.00000,0.00000,0.00000,0.00000 100 0.06601,0.61961,0.14266 -0.09766,0.53497,1.08759 -0.23250,-0.49350,-0.38550 0.06601,0.61961,0.14266 -0.09766,0.53497,1.08759 -0.23218,-0.49457,-0.38545 0.32096,0.17211,0.04151
06/24/24 13:39:13.279557 0.00000,0.00000,0.00000,0.00000,0.00000,0.00000,0.00000,0.00000,0.00000,0.00000,0.00000,0.00000 100 0.02236,-0.76866,0.35345 0.01587,0.35352,0.63287 -0.23400,-0.49200,-0.38550 0.02236,-0.76866,0.35345 0.01587,0.35352,0.63287 -0.23413,-0.49109,-0.38634 0.16932,-0.29633,-0.04390
06/24/24 13:39:13.323336 0.00000,0.00000,0.00000,0.00000,0.00000,0.00000,0.00000,0.00000,0.00000,0.00000,0.00000,0.00000 100 -0.50463,-1.45853,0.32045 0.05225,0.26892,0.67413 -0.24900,-0.49350,-0.37950 -0.50463,-1.45853,0.32045 0.05225,0.26892,0.67413 -0.24825,-0.49378,-0.38021 0.24433,-0.31468,-0.01220
06/24/24 13:39:13.366635 0.00000,0.00000,0.00000,0.00000,0.00000,0.00000,0.00000,0.00000,0.00000,0.00000,0.00000,0.00000 100 -0.71862,0.02129,-0.32790 0.02209,0.28644,0.51886 -0.26100,-0.48300,-0.39450 -0.71862,0.02129,-0.32790 0.02209,0.28644,0.51886 -0.26121,-0.48332,-0.39325 0.10578,-0.41661,-0.01484
06/24/24 13:39:13.410613 0.00000,0.00000,0.00000,0.00000,0.00000,0.00000,0.00000,0.00000,0.00000,0.00000,0.00000,0.00000 100 -1.02523,-0.43543,-0.41094 -0.05310,0.34857,0.75983 -0.26400,-0.47400,-0.41100 -1.02523,-0.43543,-0.41094 -0.05310,0.34857,0.75983 -0.26263,-0.47578,-0.40709 0.14461,-0.17746,0.06462
06/24/24 13:39:13.454010 0.00000,0.00000,0.00000,0.00000,0.00000,0.00000,0.00000,0.00000,0.00000,0.00000,0.00000,0.00000 100 -1.32119,-0.02129,-0.60151 -0.10846,0.39276,0.59662 -0.26100,-0.46050,-0.42300 -1.32119,-0.02129,-0.60151 -0.10846,0.39276,0.59662 -0.26025,-0.46980,-0.41624 -0.03849,-0.28141,0.06423
06/24/24 13:39:13.497857 0.00000,0.00000,0.00000,0.00000,0.00000,0.00000,0.00000,0.00000,0.00000,0.00000,0.00000,0.00000 100 -1.47343,-0.56531,0.19802 -0.07288,0.43439,0.68170 -0.25050,-0.44850,-0.44250 -1.47343,-0.56531,0.19802 -0.07288,0.43439,0.68170 -0.25857,-0.45502,-0.42693 -0.05424,-0.19020,0.00036
06/24/24 13:39:13.541870 0.00000,0.00000,0.00000,0.00000,0.00000,0.00000,0.00000,0.00000,0.00000,0.00000,0.00000,0.00000 100 -1.68636,-0.35558,-0.05110 -0.16125,0.47961,0.73383 -0.25350,-0.42300,-0.47400 -1.68636,-0.35558,-0.05110 -0.16125,0.47961,0.73383 -0.25454,-0.42670,-0.46732 -0.16436,-0.12630,0.06450
06/24/24 13:39:13.585252 0.00000,0.00000,0.00000,0.00000,0.00000,0.00000,0.00000,0.00000,0.00000,0.00000,0.00000,0.00000 100 -1.39039,-0.99329,0.07346 -0.00012,0.51190,0.81671 -0.26400,-0.39600,-0.48450 -1.39039,-0.99329,0.07346 -0.00012,0.51190,0.81671 -0.25874,-0.41010,-0.47661 -0.12301,-0.04832,-0.09071
06/24/24 13:39:13.629032 0.00000,0.00000,0.00000,0.00000,0.00000,0.00000,0.00000,0.00000,0.00000,0.00000,0.00000,0.00000 100 -1.43085,-1.08698,-0.22783 0.03497,0.45203,0.84314 -0.27600,-0.37200,-0.49200 -1.43085,-1.08698,-0.22783 0.03497,0.45203,0.84314 -0.27631,-0.37282,-0.49160 -0.09730,-0.05046,-0.07312
06/24/24 13:39:13.672527 0.00000,0.00000,0.00000,0.00000,0.00000,0.00000,0.00000,0.00000,0.00000,0.00000,0.00000,0.00000 100 -1.13063,-0.66006,-0.54721 0.12415,0.43945,0.97577 -0.28800,-0.34800,-0.50250 -1.13063,-0.66006,-0.54721 0.12415,0.43945,0.97577 -0.28338,-0.36403,-0.49991 -0.05643,0.06940,-0.11768
06/24/24 13:39:13.716322 0.00000,0.00000,0.00000,0.00000,0.00000,0.00000,0.00000,0.00000,0.00000,0.00000,0.00000,0.00000 100 -0.95071,-0.35026,-1.02416 0.04211,0.36292,0.97754 -0.28650,-0.33450,-0.51300 -0.95071,-0.35026,-1.02416 0.04211,0.36292,0.97754 -0.28455,-0.35705,-0.50241 -0.06989,0.04097,-0.02378
06/24/24 13:39:13.760139 0.00000,0.00000,0.00000,0.00000,0.00000,0.00000,0.00000,0.00000,0.00000,0.00000,0.00000,0.00000 100 -0.56318,-0.33003,-1.05291 0.04260,0.22009,0.93536 -0.27900,-0.33000,-0.52200 -0.56318,-0.33003,-1.05291 0.04260,0.22009,0.93536 -0.28389,-0.34872,-0.50797 0.03730,-0.03930,0.02879
06/24/24 13:39:13.803641 0.00000,0.00000,0.00000,0.00000,0.00000,0.00000,0.00000,0.00000,0.00000,0.00000,0.00000,0.00000 100 -0.36729,-1.13488,-0.90919 -0.02551,0.16302,1.16998 -0.26700,-0.32400,-0.51450 -0.36729,-1.13488,-0.90919 -0.02551,0.16302,1.16998 -0.27474,-0.33326,-0.51291 0.06214,0.16796,0.16765
06/24/24 13:39:13.847522 0.00000,0.00000,0.00000,0.00000,0.00000,0.00000,0.00000,0.00000,0.00000,0.00000,0.00000,0.00000 100 -0.64835,-0.84850,-0.78569 -0.11023,0.11426,1.13531 -0.28050,-0.32100,-0.51300 -0.64835,-0.84850,-0.78569 -0.11023,0.11426,1.13531 -0.27813,-0.32327,-0.51215 -0.01374,0.11317,0.27352
06/24/24 13:39:13.890960 0.00000,0.00000,0.00000,0.00000,0.00000,0.00000,0.00000,0.00000,0.00000,0.00000,0.00000,0.00000 100 -0.44501,-0.55360,-0.43649 0.02325,0.12030,1.03186 -0.28050,-0.32400,-0.50550 -0.44501,-0.55360,-0.43649 0.02325,0.12030,1.03186 -0.28154,-0.32458,-0.50995 0.02159,0.02826,0.14817
06/24/24 13:39:13.934964 0.00000,0.00000,0.00000,0.00000,0.00000,0.00000,0.00000,0.00000,0.00000,0.00000,0.00000,0.00000 100 -0.55680,-0.61216,-0.44714 0.02161,0.17181,1.03912 -0.28200,-0.31800,-0.51300 -0.55680,-0.61216,-0.44714 0.02161,0.17181,1.03912 -0.28103,-0.32373,-0.51123 -0.04968,0.04780,0.09700
06/24/24 13:39:13.978767 0.00000,0.00000,0.00000,0.00000,0.00000,0.00000,0.00000,0.00000,0.00000,0.00000,0.00000,0.00000 100 -0.57596,-0.33110,-0.37688 0.12872,0.15997,0.94147 -0.29700,-0.31350,-0.50550 -0.57596,-0.33110,-0.37688 0.12872,0.15997,0.94147 -0.28171,-0.32315,-0.51135 0.01108,-0.03656,-0.01381
06/24/24 13:39:14.022092 0.00000,0.00000,0.00000,0.00000,0.00000,0.00000,0.00000,0.00000,0.00000,0.00000,0.00000,0.00000 100 -0.39072,-0.00106,-0.22463 0.10608,0.15912,0.90784 -0.28500,-0.31050,-0.51450 -0.39072,-0.00106,-0.22463 0.10608,0.15912,0.90784 -0.28236,-0.32237,-0.51162 -0.01052,-0.07252,-0.02035
06/24/24 13:39:14.066049 0.00000,0.00000,0.00000,0.00000,0.00000,0.00000,0.00000,0.00000,0.00000,0.00000,0.00000,0.00000 100 -0.52273,-0.37262,-0.08517 0.25433,0.16772,0.98840 -0.28500,-0.30300,-0.51300 -0.52273,-0.37262,-0.08517 0.25433,0.16772,0.98840 -0.28415,-0.30972,-0.51362 0.07864,0.02296,-0.13091
06/24/24 13:39:14.109343 0.00000,0.00000,0.00000,0.00000,0.00000,0.00000,0.00000,0.00000,0.00000,0.00000,0.00000,0.00000 100 -0.50995,-0.43436,-0.14053 0.33813,0.10309,0.89978 -0.29400,-0.30000,-0.51450 -0.50995,-0.43436,-0.14053 0.33813,0.10309,0.89978 -0.29461,-0.29923,-0.51589 0.14574,-0.05491,-0.14188
06/24/24 13:39:14.153173 0.00000,0.00000,0.00000,0.00000,0.00000,0.00000,0.00000,0.00000,0.00000,0.00000,0.00000,0.00000 100 -0.12882,-0.79634,0.01171 0.43677,0.12329,0.91864 -0.30450,-0.29700,-0.51900 -0.12882,-0.79634,0.01171 0.43677,0.12329,0.91864 -0.30335,-0.29752,-0.51862 0.16726,-0.01098,-0.20911
06/24/24 13:39:14.196969 0.00000,0.00000,0.00000,0.00000,0.00000,0.00000,0.00000,0.00000,0.00000,0.00000,0.00000,0.00000 100 -0.53444,-0.61641,-0.33429 0.34418,0.05225,0.99512 -0.30450,-0.29850,-0.51900 -0.53444,-0.61641,-0.33429 0.34418,0.05225,0.99512 -0.30447,-0.29827,-0.51885 0.11485,0.04556,-0.07112
06/24/24 13:39:14.240454 0.00000,0.00000,0.00000,0.00000,0.00000,0.00000,0.00000,0.00000,0.00000,0.00000,0.00000,0.00000 100 -0.46524,-0.60470,0.08836 0.27820,0.04095,0.95782 -0.31350,-0.29400,-0.51750 -0.46524,-0.60470,0.08836 0.27820,0.04095,0.95782 -0.31467,-0.28722,-0.51832 0.03664,-0.00256,-0.01643
06/24/24 13:39:14.284269 0.00000,0.00000,0.00000,0.00000,0.00000,0.00000,0.00000,0.00000,0.00000,0.00000,0.00000,0.00000 100 1.61077,2.25380,-2.04513 0.13898,0.08539,1.07581 -0.31050,-0.29100,-0.52350 1.61077,2.25380,-2.04513 0.13898,0.08539,1.07581 -0.31471,-0.28925,-0.52344 -0.05074,0.08599,0.04495
06/24/24 13:39:14.327605 0.00000,0.00000,0.00000,0.00000,0.00000,0.00000,0.00000,0.00000,0.00000,0.00000,0.00000,0.00000 100 -1.43191,-1.46279,1.16256 0.40680,0.10205,0.84869 -0.27450,-0.31050,-0.52500 -1.43191,-1.46279,1.16256 0.40680,0.10205,0.84869 -0.27553,-0.31114,-0.52529 0.15991,-0.08614,-0.18832
06/24/24 13:39:14.371666 0.00000,0.00000,0.00000,0.00000,0.00000,0.00000,0.00000,0.00000,0.00000,0.00000,0.00000,0.00000 100 0.02236,-0.68455,0.39284 0.18549,0.07538,0.96594 -0.31350,-0.29100,-0.51900 0.02236,-0.68455,0.39284 0.18549,0.07538,0.96594 -0.30135,-0.29531,-0.52923 -0.06528,-0.01601,0.02524
06/24/24 13:39:14.415539 0.00000,0.00000,0.00000,0.00000,0.00000,0.00000,0.00000,0.00000,0.00000,0.00000,0.00000,0.00000 100 0.01384,0.46630,-0.74949 0.48285,0.00366,0.79169 -0.32400,-0.28950,-0.51450 0.01384,0.46630,-0.74949 0.48285,0.00366,0.79169 -0.32422,-0.28928,-0.51489 0.23447,-0.11330,-0.13682
06/24/24 13:39:14.458932 0.00000,0.00000,0.00000,0.00000,0.00000,0.00000,0.00000,0.00000,0.00000,0.00000,0.00000,0.00000 100 -0.24167,-0.11498,0.09049 0.49786,0.04535,0.90967 -0.32100,-0.29250,-0.52200 -0.24167,-0.11498,0.09049 0.49786,0.04535,0.90967 -0.32090,-0.29254,-0.52248 0.18391,0.01192,-0.14008
06/24/24 13:39:14.502937 0.00000,0.00000,0.00000,0.00000,0.00000,0.00000,0.00000,0.00000,0.00000,0.00000,0.00000,0.00000 100 0.23209,-0.49079,0.23635 0.43372,0.06665,0.86658 -0.32400,-0.29100,-0.52200 0.23209,-0.49079,0.23635 0.43372,0.06665,0.86658 -0.32320,-0.29111,-0.52293 0.11230,-0.04197,-0.11431
06/24/24 13:39:14.546246 0.00000,0.00000,0.00000,0.00000,0.00000,0.00000,0.00000,0.00000,0.00000,0.00000,0.00000,0.00000 100 -0.49079,-0.26296,-0.15437 0.35968,-0.00238,0.81866 -0.33150,-0.29100,-0.52050 -0.49079,-0.26296,-0.15437 0.35968,-0.00238,0.81866 -0.33098,-0.29056,-0.52010 0.09107,-0.11071,-0.02151
06/24/24 13:39:14.590065 0.00000,0.00000,0.00000,0.00000,0.00000,0.00000,0.00000,0.00000,0.00000,0.00000,0.00000,0.00000 100 0.05217,-0.16715,0.26509 0.28546,0.04047,0.92773 -0.33450,-0.27450,-0.52500 0.05217,-0.16715,0.26509 0.28546,0.04047,0.92773 -0.33170,-0.28913,-0.52234 -0.03092,-0.02901,0.00627
06/24/24 13:39:14.634076 0.00000,0.00000,0.00000,0.00000,0.00000,0.00000,0.00000,0.00000,0.00000,0.00000,0.00000,0.00000 100 -0.17886,-0.11817,0.07346 0.28699,-0.09131,0.78204 -0.34350,-0.27450,-0.51750 -0.17886,-0.11817,0.07346 0.28699,-0.09131,0.78204 -0.34183,-0.27739,-0.51842 0.08262,-0.16981,0.07907
06/24/24 13:39:14.677427 0.00000,0.00000,0.00000,0.00000,0.00000,0.00000,0.00000,0.00000,0.00000,0.00000,0.00000,0.00000 100 -0.57702,-0.06814,0.16715 0.36047,-0.08423,0.94653 -0.33900,-0.27000,-0.52200 -0.57702,-0.06814,0.16715 0.36047,-0.08423,0.94653 -0.34070,-0.27126,-0.52246 0.07311,0.01288,0.04100
06/24/24 13:39:14.721244 0.00000,0.00000,0.00000,0.00000,0.00000,0.00000,0.00000,0.00000,0.00000,0.00000,0.00000,0.00000 100 -0.79953,-0.15756,0.37368 0.41888,-0.19073,0.89539 -0.35100,-0.25350,-0.53100 -0.79953,-0.15756,0.37368 0.41888,-0.19073,0.89539 -0.35029,-0.25486,-0.53078 0.16534,-0.00837,0.05376
06/24/24 13:39:14.764793 0.00000,0.00000,0.00000,0.00000,0.00000,0.00000,0.00000,0.00000,0.00000,0.00000,0.00000,0.00000 100 -0.85276,-0.23635,0.77078 0.32996,-0.04956,1.11523 -0.35250,-0.22050,-0.52650 -0.85276,-0.23635,0.77078 0.32996,-0.04956,1.11523 -0.35346,-0.22868,-0.52790 -0.12085,0.15752,-0.02462
06/24/24 13:39:14.808639 0.00000,0.00000,0.00000,0.00000,0.00000,0.00000,0.00000,0.00000,0.00000,0.00000,0.00000,0.00000 100 0.91451,0.49079,0.60364 0.13452,-0.16107,0.96313 -0.35850,-0.22350,-0.53400 0.91451,0.49079,0.60364 0.13452,-0.16107,0.96313 -0.35996,-0.22181,-0.53499 -0.10972,-0.03551,0.17145
06/24/24 13:39:14.852491 0.00000,0.00000,0.00000,0.00000,0.00000,0.00000,0.00000,0.00000,0.00000,0.00000,0.00000,0.00000 100 1.22431,-0.63558,2.35068 0.37524,-0.00995,0.95032 -0.36150,-0.21900,-0.52500 1.22431,-0.63558,2.35068 0.37524,-0.00995,0.95032 -0.35732,-0.22377,-0.52628 -0.01673,0.01812,-0.08459
06/24/24 13:39:14.895990 0.00000,0.00000,0.00000,0.00000,0.00000,0.00000,0.00000,0.00000,0.00000,0.00000,0.00000,0.00000 100 0.30980,-0.44075,0.72394 0.51001,0.00659,0.95111 -0.38850,-0.22050,-0.51600 0.30980,-0.44075,0.72394 0.51001,0.00659,0.95111 -0.38633,-0.22354,-0.51730 0.05173,0.06557,-0.16326
06/24/24 13:39:14.939793 0.00000,0.00000,0.00000,0.00000,0.00000,0.00000,0.00000,0.00000,0.00000,0.00000,0.00000,0.00000 100 1.11572,-0.44182,1.07739 0.36890,-0.00421,0.82825 -0.39600,-0.21600,-0.49800 1.11572,-0.44182,1.07739 0.36890,-0.00421,0.82825 -0.39356,-0.21654,-0.50334 0.00204,-0.09600,-0.06980
06/24/24 13:39:14.983159 0.00000,0.00000,0.00000,0.00000,0.00000,0.00000,0.00000,0.00000,0.00000,0.00000,0.00000,0.00000 100 0.07239,0.25338,-0.09582 0.33716,-0.07416,0.93335 -0.40800,-0.22500,-0.49950 0.07239,0.25338,-0.09582 0.33716,-0.07416,0.93335 -0.40451,-0.22144,-0.50055 0.03165,-0.00607,0.03768
06/24/24 13:39:15.027163 0.00000,0.00000,0.00000,0.00000,0.00000,0.00000,0.00000,0.00000,0.00000,0.00000,0.00000,0.00000 100 -0.04258,0.03087,0.66219 0.22198,-0.02716,0.97650 -0.40350,-0.21900,-0.49800 -0.04258,0.03087,0.66219 0.22198,-0.02716,0.97650 -0.40389,-0.21998,-0.49852 -0.07694,-0.00521,0.08967
06/24/24 13:39:15.071030 0.00000,0.00000,0.00000,0.00000,0.00000,0.00000,0.00000,0.00000,0.00000,0.00000,0.00000,0.00000 100 0.51315,-0.66006,1.11253 0.38086,-0.12878,0.86560 -0.40350,-0.20850,-0.49800 0.51315,-0.66006,1.11253 0.38086,-0.12878,0.86560 -0.40400,-0.21150,-0.49924 0.10450,-0.05135,0.00746
06/24/24 13:39:15.114330 0.00000,0.00000,0.00000,0.00000,0.00000,0.00000,0.00000,0.00000,0.00000,0.00000,0.00000,0.00000 100 0.39923,-0.30448,0.89854 0.33307,-0.03674,0.90680 -0.42450,-0.20250,-0.48600 0.39923,-0.30448,0.89854 0.33307,-0.03674,0.90680 -0.41795,-0.20421,-0.48846 -0.00622,-0.03355,0.02257
06/24/24 13:39:15.158344 0.00000,0.00000,0.00000,0.00000,0.00000,0.00000,0.00000,0.00000,0.00000,0.00000,0.00000,0.00000 100 0.05642,0.20547,4.21589 0.62354,0.05676,1.02698 -0.43800,-0.18450,-0.48000 0.05642,0.20547,4.21589 0.62354,0.05676,1.02698 -0.43687,-0.18895,-0.48031 0.00604,0.17945,-0.23573
06/24/24 13:39:15.201821 0.00000,0.00000,0.00000,0.00000,0.00000,0.00000,0.00000,0.00000,0.00000,0.00000,0.00000,0.00000 100 1.89609,-1.05504,3.39081 -0.34827,0.08148,0.77539 -0.44250,-0.01950,-0.48000 1.89609,-1.05504,3.39081 -0.34827,0.08148,0.77539 -0.44373,-0.04580,-0.48213 -0.17271,-0.38135,0.56268
06/24/24 13:39:15.245716 0.00000,0.00000,0.00000,0.00000,0.00000,0.00000,0.00000,0.00000,0.00000,0.00000,0.00000,0.00000 100 -0.22038,-0.17460,-0.18311 0.33966,-0.06366,0.81781 -0.44700,-0.00450,-0.47400 -0.22038,-0.17460,-0.18311 0.33966,-0.06366,0.81781 -0.44701,-0.00551,-0.47708 -0.07453,-0.11799,-0.06889
06/24/24 13:39:15.289810 0.00000,0.00000,0.00000,0.00000,0.00000,0.00000,0.00000,0.00000,0.00000,0.00000,0.00000,0.00000 100 0.46098,-0.05962,0.08623 0.33783,-0.26550,0.89075 -0.45150,-0.01200,-0.47850 0.46098,-0.05962,0.08623 0.33783,-0.26550,0.89075 -0.45136,-0.01122,-0.47604 0.12305,-0.01923,-0.03162
06/24/24 13:39:15.333213 0.00000,0.00000,0.00000,0.00000,0.00000,0.00000,0.00000,0.00000,0.00000,0.00000,0.00000,0.00000 100 -0.03833,-0.23635,-0.28319 0.38574,-0.15601,0.94897 -0.45450,-0.01200,-0.46950 -0.03833,-0.23635,-0.28319 0.38574,-0.15601,0.94897 -0.45511,-0.01196,-0.46991 0.02034,0.03432,-0.05874
06/24/24 13:39:15.377095 0.00000,0.00000,0.00000,0.00000,0.00000,0.00000,0.00000,0.00000,0.00000,0.00000,0.00000,0.00000 100 -1.20196,0.06068,-1.09975 0.34705,-0.21515,0.99567 -0.45450,-0.01200,-0.46500 -1.20196,0.06068,-1.09975 0.34705,-0.21515,0.99567 -0.45450,-0.01333,-0.46572 0.05939,0.07441,0.01422
06/24/24 13:39:15.420671 0.00000,0.00000,0.00000,0.00000,0.00000,0.00000,0.00000,0.00000,0.00000,0.00000,0.00000,0.00000 100 -0.66113,-0.15437,-0.72926 0.40686,-0.24902,0.83319 -0.45600,-0.01200,-0.46200 -0.66113,-0.15437,-0.72926 0.40686,-0.24902,0.83319 -0.45800,-0.01303,-0.46049 0.09591,-0.04783,-0.07704
06/24/24 13:39:15.464588 0.00000,0.00000,0.00000,0.00000,0.00000,0.00000,0.00000,0.00000,0.00000,0.00000,0.00000,0.00000 100 -0.49718,-0.11604,-0.83253 0.36005,-0.26776,0.89484 -0.46650,-0.02100,-0.46050 -0.49718,-0.11604,-0.83253 0.36005,-0.26776,0.89484 -0.46452,-0.01942,-0.46034 0.08360,-0.00247,0.00391
06/24/24 13:39:15.508443 0.00000,0.00000,0.00000,0.00000,0.00000,0.00000,0.00000,0.00000,0.00000,0.00000,0.00000,0.00000 100 0.01597,0.23847,-0.23528 0.36102,-0.16913,0.92480 -0.46500,-0.01800,-0.45900 0.01597,0.23847,-0.23528 0.36102,-0.16913,0.92480 -0.46382,-0.01937,-0.45647 -0.01236,0.00695,-0.01035
06/24/24 13:39:15.552017 0.00000,0.00000,0.00000,0.00000,0.00000,0.00000,0.00000,0.00000,0.00000,0.00000,0.00000,0.00000 100 1.09336,0.91344,0.87512 0.28003,-0.20007,1.05621 -0.46050,-0.02700,-0.46200 1.09336,0.91344,0.87512 0.28003,-0.20007,1.05621 -0.45941,-0.02617,-0.46045 -0.00554,0.10779,0.08249
06/24/24 13:39:15.595906 0.00000,0.00000,0.00000,0.00000,0.00000,0.00000,0.00000,0.00000,0.00000,0.00000,0.00000,0.00000 100 0.95177,1.14021,0.40988 0.32544,-0.15088,0.94427 -0.44400,-0.03300,-0.48150 0.95177,1.14021,0.40988 0.32544,-0.15088,0.94427 -0.44569,-0.02982,-0.47519 0.02114,0.00904,-0.04144
06/24/24 13:39:15.639276 0.00000,0.00000,0.00000,0.00000,0.00000,0.00000,0.00000,0.00000,0.00000,0.00000,0.00000,0.00000 100 2.02704,0.41307,-0.01171 0.25952,-0.03058,0.75049 -0.43350,-0.03450,-0.49200 2.02704,0.41307,-0.01171 0.25952,-0.03058,0.75049 -0.43652,-0.03287,-0.48819 -0.02942,-0.20863,-0.06630
06/24/24 13:39:15.683428 0.00000,0.00000,0.00000,0.00000,0.00000,0.00000,0.00000,0.00000,0.00000,0.00000,0.00000,0.00000 100 0.50463,0.42904,-0.18631 0.19794,-0.16144,0.82935 -0.41550,-0.06900,-0.50700 0.50463,0.42904,-0.18631 0.19794,-0.16144,0.82935 -0.41668,-0.06496,-0.50576 0.11987,-0.14076,0.01964
06/24/24 13:39:15.727380 0.00000,0.00000,0.00000,0.00000,0.00000,0.00000,0.00000,0.00000,0.00000,0.00000,0.00000,0.00000 100 0.33536,0.35665,0.09369 0.23077,-0.11908,0.98706 -0.40650,-0.07950,-0.50850 0.33536,0.35665,0.09369 0.23077,-0.11908,0.98706 -0.40727,-0.08247,-0.50682 0.09190,0.01650,0.00094
06/24/24 13:39:15.770842 0.00000,0.00000,0.00000,0.00000,0.00000,0.00000,0.00000,0.00000,0.00000,0.00000,0.00000,0.00000 100 0.39072,0.27467,0.07346 0.21106,-0.07910,0.98828 -0.40200,-0.09000,-0.51750 0.39072,0.27467,0.07346 0.21106,-0.07910,0.98828 -0.40308,-0.08840,-0.51768 0.05547,0.01213,-0.00316
06/24/24 13:39:15.814998 0.00000,0.00000,0.00000,0.00000,0.00000,0.00000,0.00000,0.00000,0.00000,0.00000,0.00000,0.00000 100 0.43649,0.31832,0.32790 0.22095,-0.10358,0.95892 -0.40350,-0.08700,-0.52350 0.43649,0.31832,0.32790 0.22095,-0.10358,0.95892 -0.40347,-0.08388,-0.52332 0.09720,-0.01553,-0.02126
06/24/24 13:39:15.858490 0.00000,0.00000,0.00000,0.00000,0.00000,0.00000,0.00000,0.00000,0.00000,0.00000,0.00000,0.00000 100 0.22996,0.00639,-0.19483 0.15802,0.06104,0.91302 -0.40050,-0.08250,-0.52800 0.22996,0.00639,-0.19483 0.15802,0.06104,0.91302 -0.40257,-0.09136,-0.52641 -0.06738,-0.07384,-0.00067
06/24/24 13:39:15.902419 0.00000,0.00000,0.00000,0.00000,0.00000,0.00000,0.00000,0.00000,0.00000,0.00000,0.00000,0.00000 100 0.35771,0.36836,-0.34494 0.23798,-0.04791,1.00897 -0.39300,-0.10500,-0.52650 0.35771,0.36836,-0.34494 0.23798,-0.04791,1.00897 -0.39411,-0.10219,-0.52549 0.07112,0.03443,-0.04310
06/24/24 13:39:15.946552 0.00000,0.00000,0.00000,0.00000,0.00000,0.00000,0.00000,0.00000,0.00000,0.00000,0.00000,0.00000 100 0.00745,0.36942,-0.10540 0.19128,0.01166,0.95428 -0.38550,-0.11250,-0.53100 0.00745,0.36942,-0.10540 0.19128,0.01166,0.95428 -0.39093,-0.10554,-0.52880 0.01504,-0.02727,-0.03094
06/24/24 13:39:15.990012 0.00000,0.00000,0.00000,0.00000,0.00000,0.00000,0.00000,0.00000,0.00000,0.00000,0.00000,0.00000 100 0.12988,0.25125,-0.38965 0.09058,-0.01093,0.92706 -0.38400,-0.11700,-0.53700 0.12988,0.25125,-0.38965 0.09058,-0.01093,0.92706 -0.38100,-0.11461,-0.53485 0.02254,-0.07049,0.05720
06/24/24 13:39:16.033939 0.00000,0.00000,0.00000,0.00000,0.00000,0.00000,0.00000,0.00000,0.00000,0.00000,0.00000,0.00000 100 -0.07346,0.28958,-0.09795 0.12738,0.02911,0.92194 -0.37050,-0.11550,-0.53400 -0.07346,0.28958,-0.09795 0.12738,0.02911,0.92194 -0.38034,-0.11514,-0.53451 -0.00668,-0.06888,-0.00209
06/24/24 13:39:16.077606 0.00000,0.00000,0.00000,0.00000,0.00000,0.00000,0.00000,0.00000,0.00000,0.00000,0.00000,0.00000 100 -0.21931,0.20228,-0.10646 0.13007,0.08698,0.80811 -0.36900,-0.12150,-0.53700 -0.21931,0.20228,-0.10646 0.13007,0.08698,0.80811 -0.37231,-0.11870,-0.53851 -0.06124,-0.18028,-0.04265
06/24/24 13:39:16.121555 0.00000,0.00000,0.00000,0.00000,0.00000,0.00000,0.00000,0.00000,0.00000,0.00000,0.00000,0.00000 100 0.22357,-0.03407,-0.38965 0.07098,-0.06616,1.06604 -0.36750,-0.11250,-0.54000 0.22357,-0.03407,-0.38965 0.07098,-0.06616,1.06604 -0.36926,-0.11483,-0.54266 0.07458,0.06485,0.07994
06/24/24 13:39:16.165546 0.00000,0.00000,0.00000,0.00000,0.00000,0.00000,0.00000,0.00000,0.00000,0.00000,0.00000,0.00000 100 -0.11711,0.19802,0.02662 0.05981,0.01660,0.87024 -0.36600,-0.12600,-0.54750 -0.11711,0.19802,0.02662 0.05981,0.01660,0.87024 -0.36110,-0.12102,-0.54137 -0.00904,-0.12842,0.03781
06/24/24 13:39:16.209204 0.00000,0.00000,0.00000,0.00000,0.00000,0.00000,0.00000,0.00000,0.00000,0.00000,0.00000,0.00000 100 -0.01916,0.57809,0.03726 0.13391,0.07794,1.02747 -0.35400,-0.12000,-0.54900 -0.01916,0.57809,0.03726 0.13391,0.07794,1.02747 -0.35920,-0.12206,-0.54158 -0.04944,0.03689,-0.04588
06/24/24 13:39:16.253195 0.00000,0.00000,0.00000,0.00000,0.00000,0.00000,0.00000,0.00000,0.00000,0.00000,0.00000,0.00000 100 -0.07239,0.32152,0.26935 -0.05890,-0.09296,0.94983 -0.34350,-0.12450,-0.54750 -0.07239,0.32152,0.26935 -0.05890,-0.09296,0.94983 -0.34765,-0.11940,-0.54813 0.07136,-0.05944,0.15668
06/24/24 13:39:16.296698 0.00000,0.00000,0.00000,0.00000,0.00000,0.00000,0.00000,0.00000,0.00000,0.00000,0.00000,0.00000 100 -0.47695,0.46204,-0.18524 0.04614,-0.06714,1.06720 -0.34200,-0.10650,-0.55950 -0.47695,0.46204,-0.18524 0.04614,-0.06714,1.06720 -0.34418,-0.11172,-0.55460 0.06390,0.06801,0.02881
06/24/24 13:39:16.340841 0.00000,0.00000,0.00000,0.00000,0.00000,0.00000,0.00000,0.00000,0.00000,0.00000,0.00000,0.00000 100 -0.32684,0.37475,-0.25125 0.15869,-0.16553,0.92993 -0.33150,-0.09750,-0.56100 -0.32684,0.37475,-0.25125 0.15869,-0.16553,0.92993 -0.33292,-0.10111,-0.56029 0.16423,-0.05982,-0.08032
06/24/24 13:39:16.384844 0.00000,0.00000,0.00000,0.00000,0.00000,0.00000,0.00000,0.00000,0.00000,0.00000,0.00000,0.00000 100 -0.30555,0.05642,-0.46737 0.14050,-0.01611,1.06848 -0.32550,-0.10050,-0.56100 -0.30555,0.05642,-0.46737 0.14050,-0.01611,1.06848 -0.33105,-0.10004,-0.56082 -0.01339,0.07286,-0.10220
06/24/24 13:39:16.428394 0.00000,0.00000,0.00000,0.00000,0.00000,0.00000,0.00000,0.00000,0.00000,0.00000,0.00000,0.00000 100 0.27999,-0.16502,-1.00607 -0.00421,-0.05920,1.11853 -0.32100,-0.10200,-0.56250 0.27999,-0.16502,-1.00607 -0.00421,-0.05920,1.11853 -0.32911,-0.09829,-0.56050 -0.01211,0.11891,0.05034
06/24/24 13:39:16.472538 0.00000,0.00000,0.00000,0.00000,0.00000,0.00000,0.00000,0.00000,0.00000,0.00000,0.00000,0.00000 100 -0.27893,0.00745,0.11285 0.00690,-0.01147,1.06744 -0.32550,-0.10200,-0.56550 -0.27893,0.00745,0.11285 0.00690,-0.01147,1.06744 -0.32728,-0.09985,-0.56098 -0.06438,0.06537,0.02129
06/24/24 13:39:16.516071 0.00000,0.00000,0.00000,0.00000,0.00000,0.00000,0.00000,0.00000,0.00000,0.00000,0.00000,0.00000 100 2.02278,-0.19376,1.84605 -0.11292,-0.09247,1.07629 -0.33000,-0.10650,-0.56550 2.02278,-0.19376,1.84605 -0.11292,-0.09247,1.07629 -0.32619,-0.10738,-0.56202 0.00930,0.07334,0.16600
06/24/24 13:39:16.560093 0.00000,0.00000,0.00000,0.00000,0.00000,0.00000,0.00000,0.00000,0.00000,0.00000,0.00000,0.00000 100 0.43330,-0.22570,-0.04365 0.31195,0.19421,0.96283 -0.32550,-0.13200,-0.55650 0.43330,-0.22570,-0.04365 0.31195,0.19421,0.96283 -0.32555,-0.13052,-0.55682 -0.06667,-0.00899,-0.27482
06/24/24 13:39:16.604256 0.00000,0.00000,0.00000,0.00000,0.00000,0.00000,0.00000,0.00000,0.00000,0.00000,0.00000,0.00000 100 -0.48866,-0.06494,0.11604 0.01605,0.17743,0.90179 -0.33450,-0.14400,-0.54750 -0.48866,-0.06494,0.11604 0.01605,0.17743,0.90179 -0.33359,-0.13925,-0.55361 -0.11852,-0.08849,0.00855
06/24/24 13:39:16.647800 0.00000,0.00000,0.00000,0.00000,0.00000,0.00000,0.00000,0.00000,0.00000,0.00000,0.00000,0.00000 100 -0.44075,-0.27787,-0.21505 0.06396,-0.33301,1.03790 -0.33900,-0.12300,-0.55500 -0.44075,-0.27787,-0.21505 0.06396,-0.33301,1.03790 -0.33886,-0.12732,-0.55283 0.35109,0.02906,0.09997
06/24/24 13:39:16.691809 0.00000,0.00000,0.00000,0.00000,0.00000,0.00000,0.00000,0.00000,0.00000,0.00000,0.00000,0.00000 100 1.14660,0.22783,0.03833 0.18219,0.22449,1.05273 -0.33600,-0.14400,-0.54600 1.14660,0.22783,0.03833 0.18219,0.22449,1.05273 -0.33744,-0.13984,-0.54816 -0.09796,0.07905,-0.13379
06/24/24 13:39:16.735474 0.00000,0.00000,0.00000,0.00000,0.00000,0.00000,0.00000,0.00000,0.00000,0.00000,0.00000,0.00000 100 -0.36304,1.20515,-0.41840 0.00671,0.08044,0.90271 -0.32700,-0.16200,-0.55350 -0.36304,1.20515,-0.41840 0.00671,0.08044,0.90271 -0.33357,-0.15148,-0.55325 0.00480,-0.09425,0.03152
06/24/24 13:39:16.779474 0.00000,0.00000,0.00000,0.00000,0.00000,0.00000,0.00000,0.00000,0.00000,0.00000,0.00000,0.00000 100 0.07133,0.59725,-0.24806 -0.13373,0.00684,0.80066 -0.30900,-0.15600,-0.56250 0.07133,0.59725,-0.24806 -0.13373,0.00684,0.80066 -0.31884,-0.15441,-0.55928 0.03113,-0.20175,0.14427
06/24/24 13:39:16.823004 0.00000,0.00000,0.00000,0.00000,0.00000,0.00000,0.00000,0.00000,0.00000,0.00000,0.00000,0.00000 100 0.17673,0.09049,-0.26190 0.00079,0.13550,1.19928 -0.30300,-0.16350,-0.56700 0.17673,0.09049,-0.26190 0.00079,0.13550,1.19928 -0.30781,-0.15763,-0.55996 0.00240,0.20681,-0.01557
06/24/24 13:39:16.867191 0.00000,0.00000,0.00000,0.00000,0.00000,0.00000,0.00000,0.00000,0.00000,0.00000,0.00000,0.00000 100 -0.11924,-0.12030,-0.26722 -0.03082,0.10181,0.92853 -0.29850,-0.16800,-0.57150 -0.11924,-0.12030,-0.26722 -0.03082,0.10181,0.92853 -0.30695,-0.15890,-0.56121 -0.01690,-0.06567,0.01486
06/24/24 13:39:16.911160 0.00000,0.00000,0.00000,0.00000,0.00000,0.00000,0.00000,0.00000,0.00000,0.00000,0.00000,0.00000 100 -0.20121,-0.01703,0.08623 -0.00995,0.05042,0.98651 -0.30150,-0.16500,-0.56700 -0.20121,-0.01703,0.08623 -0.00995,0.05042,0.98651 -0.30297,-0.16109,-0.56439 0.03133,-0.01275,0.01440
06/24/24 13:39:16.954634 0.00000,0.00000,0.00000,0.00000,0.00000,0.00000,0.00000,0.00000,0.00000,0.00000,0.00000,0.00000 100 -0.15863,-0.49505,0.15011 -0.05084,0.05493,1.12524 -0.30450,-0.16350,-0.57300 -0.15863,-0.49505,0.15011 -0.05084,0.05493,1.12524 -0.30243,-0.16153,-0.56656 0.01202,0.12583,0.06437
06/24/24 13:39:16.998840 0.00000,0.00000,0.00000,0.00000,0.00000,0.00000,0.00000,0.00000,0.00000,0.00000,0.00000,0.00000 100 -0.32897,-1.28606,0.92728 -0.63306,0.29352,1.50000 -0.31500,-0.15150,-0.56550 -0.32897,-1.28606,0.92728 -0.63306,0.29352,1.50000 -0.31235,-0.15299,-0.56454 -0.38853,0.49816,0.58436
06/24/24 13:39:17.042362 0.00000,0.00000,0.00000,0.00000,0.00000,0.00000,0.00000,0.00000,0.00000,0.00000,0.00000,0.00000 100 0.15437,-0.38326,0.48653 0.03577,0.01788,0.87506 -0.33000,-0.14400,-0.55950 0.15437,-0.38326,0.48653 0.03577,0.01788,0.87506 -0.32566,-0.15230,-0.56099 0.02467,-0.12470,0.02386
06/24/24 13:39:17.086264 0.00000,0.00000,0.00000,0.00000,0.00000,0.00000,0.00000,0.00000,0.00000,0.00000,0.00000,0.00000 100 -0.10327,0.19057,0.33216 0.07043,0.07367,1.15930 -0.33150,-0.14250,-0.55500 -0.10327,0.19057,0.33216 0.07043,0.07367,1.15930 -0.33040,-0.13958,-0.55991 -0.00396,0.16374,-0.00735
06/24/24 13:39:17.130362 0.00000,0.00000,0.00000,0.00000,0.00000,0.00000,0.00000,0.00000,0.00000,0.00000,0.00000,0.00000 100 -0.40988,0.10859,0.46311 0.01904,0.10272,0.84174 -0.32700,-0.12450,-0.55800 -0.40988,0.10859,0.46311 0.01904,0.10272,0.84174 -0.33071,-0.13905,-0.55977 -0.07106,-0.15481,0.00670
06/24/24 13:39:17.173899 0.00000,0.00000,0.00000,0.00000,0.00000,0.00000,0.00000,0.00000,0.00000,0.00000,0.00000,0.00000 100 -0.26722,-0.09262,0.18631 -0.00122,-0.01447,0.94336 -0.33000,-0.12000,-0.55650 -0.26722,-0.09262,0.18631 -0.00122,-0.01447,0.94336 -0.33034,-0.13393,-0.55987 0.02698,-0.05878,0.05934
06/24/24 13:39:17.217861 0.00000,0.00000,0.00000,0.00000,0.00000,0.00000,0.00000,0.00000,0.00000,0.00000,0.00000,0.00000 100 -0.02981,0.14372,0.28638 0.08960,0.02124,0.99738 -0.33000,-0.12150,-0.55950 -0.02981,0.14372,0.28638 0.08960,0.02124,0.99738 -0.33078,-0.12326,-0.55894 0.01121,0.00096,-0.03455
06/24/24 13:39:17.261465 0.00000,0.00000,0.00000,0.00000,0.00000,0.00000,0.00000,0.00000,0.00000,0.00000,0.00000,0.00000 100 -0.00106,0.24912,0.02236 -0.01935,0.01587,0.97845 -0.33300,-0.11700,-0.56850 -0.00106,0.24912,0.02236 -0.01935,0.01587,0.97845 -0.33082,-0.12057,-0.55960 -0.00800,-0.02339,0.06460
06/24/24 13:39:17.305410 0.00000,0.00000,0.00000,0.00000,0.00000,0.00000,0.00000,0.00000,0.00000,0.00000,0.00000,0.00000 100 0.15437,0.09688,0.19483 0.02002,0.06055,1.01404 -0.32550,-0.12150,-0.56400 0.15437,0.09688,0.19483 0.02002,0.06055,1.01404 -0.32806,-0.11933,-0.56190 -0.03549,0.01535,0.01203
06/24/24 13:39:17.349342 0.00000,0.00000,0.00000,0.00000,0.00000,0.00000,0.00000,0.00000,0.00000,0.00000,0.00000,0.00000 100 -0.20867,0.20973,0.45353 0.05701,0.05511,1.06384 -0.32550,-0.12000,-0.56100 -0.20867,0.20973,0.45353 0.05701,0.05511,1.06384 -0.32784,-0.11909,-0.56191 -0.02019,0.06631,-0.02494
06/24/24 13:39:17.392981 0.00000,0.00000,0.00000,0.00000,0.00000,0.00000,0.00000,0.00000,0.00000,0.00000,0.00000,0.00000 100 -0.98903,0.48866,0.07878 -0.04181,0.04584,1.08771 -0.31500,-0.10800,-0.56400 -0.98903,0.48866,0.07878 -0.04181,0.04584,1.08771 -0.32729,-0.11845,-0.56197 -0.05403,0.08687,0.05241
06/24/24 13:39:17.436974 0.00000,0.00000,0.00000,0.00000,0.00000,0.00000,0.00000,0.00000,0.00000,0.00000,0.00000,0.00000 100 -0.92409,-0.16821,-0.07346 0.03876,-0.21936,0.79974 -0.32100,-0.07350,-0.56400 -0.92409,-0.16821,-0.07346 0.03876,-0.21936,0.79974 -0.31981,-0.07615,-0.56798 0.16311,-0.18626,0.02088
06/24/24 13:39:17.480448 0.00000,0.00000,0.00000,0.00000,0.00000,0.00000,0.00000,0.00000,0.00000,0.00000,0.00000,0.00000 100 -0.19695,-0.01810,0.00426 0.03650,-0.11084,1.04651 -0.32400,-0.06000,-0.57150 -0.19695,-0.01810,0.00426 0.03650,-0.11084,1.04651 -0.32336,-0.06588,-0.56410 0.02433,0.05271,0.00376
06/24/24 13:39:17.524546 0.00000,0.00000,0.00000,0.00000,0.00000,0.00000,0.00000,0.00000,0.00000,0.00000,0.00000,0.00000 100 -0.54509,-0.09688,0.04258 0.05243,-0.11426,0.94635 -0.33000,-0.06150,-0.56850 -0.54509,-0.09688,0.04258 0.05243,-0.11426,0.94635 -0.32545,-0.06376,-0.56494 0.02759,-0.04581,-0.01157
06/24/24 13:39:17.568514 0.00000,0.00000,0.00000,0.00000,0.00000,0.00000,0.00000,0.00000,0.00000,0.00000,0.00000,0.00000 100 0.66113,0.07452,-0.22783 -0.00513,-0.15234,0.97675 -0.32850,-0.06450,-0.56100 0.66113,0.07452,-0.22783 -0.00513,-0.15234,0.97675 -0.32928,-0.06241,-0.56476 0.05629,-0.01457,0.05501
06/24/24 13:39:17.611996 0.00000,0.00000,0.00000,0.00000,0.00000,0.00000,0.00000,0.00000,0.00000,0.00000,0.00000,0.00000 100 0.66539,0.11498,-0.43543 -0.01123,-0.04004,0.94153 -0.32250,-0.06900,-0.56700 0.66539,0.11498,-0.43543 -0.01123,-0.04004,0.94153 -0.32905,-0.06285,-0.56491 -0.02455,-0.05856,0.03597
06/24/24 13:39:17.656126 0.00000,0.00000,0.00000,0.00000,0.00000,0.00000,0.00000,0.00000,0.00000,0.00000,0.00000,0.00000 100 0.58873,0.32684,-0.34600 -0.01434,-0.02344,0.84344 -0.32400,-0.08850,-0.57300 0.58873,0.32684,-0.34600 -0.01434,-0.02344,0.84344 -0.32851,-0.06542,-0.56499 -0.01180,-0.15680,0.03210
06/24/24 13:39:17.699598 0.00000,0.00000,0.00000,0.00000,0.00000,0.00000,0.00000,0.00000,0.00000,0.00000,0.00000,0.00000 100 0.53870,0.45140,0.11817 -0.05353,-0.04199,1.10590 -0.31500,-0.10200,-0.56700 0.53870,0.45140,0.11817 -0.05353,-0.04199,1.10590 -0.32718,-0.06992,-0.56561 0.01284,0.10592,0.06642
06/24/24 13:39:17.743563 0.00000,0.00000,0.00000,0.00000,0.00000,0.00000,0.00000,0.00000,0.00000,0.00000,0.00000,0.00000 100 0.66006,0.00000,0.39072 -0.14612,0.00714,0.86890 -0.30600,-0.11850,-0.57150 0.66006,0.00000,0.39072 -0.14612,0.00714,0.86890 -0.32257,-0.08026,-0.56707 -0.03633,-0.13102,0.14118
06/24/24 13:39:17.787726 0.00000,0.00000,0.00000,0.00000,0.00000,0.00000,0.00000,0.00000,0.00000,0.00000,0.00000,0.00000 100 -0.52805,-0.23102,0.10966 0.05902,-0.00500,1.00616 -0.30750,-0.12000,-0.57450 -0.52805,-0.23102,0.10966 0.05902,-0.00500,1.00616 -0.30618,-0.11848,-0.57759 0.04035,0.00619,-0.04280
06/24/24 13:39:17.831274 0.00000,0.00000,0.00000,0.00000,0.00000,0.00000,0.00000,0.00000,0.00000,0.00000,0.00000,0.00000 100 -0.97306,-1.03907,0.17034 0.11963,0.10931,1.35889 -0.32250,-0.10800,-0.56550 -0.97306,-1.03907,0.17034 0.11963,0.10931,1.35889 -0.31480,-0.11375,-0.57008 -0.11174,0.36070,-0.09398
06/24/24 13:39:17.875294 0.00000,0.00000,0.00000,0.00000,0.00000,0.00000,0.00000,0.00000,0.00000,0.00000,0.00000,0.00000 100 -0.06601,0.00745,0.19589 0.04901,-0.03699,1.13678 -0.32550,-0.09450,-0.55650 -0.06601,0.00745,0.19589 0.04901,-0.03699,1.13678 -0.32268,-0.10319,-0.56393 0.00399,0.13841,0.00668
06/24/24 13:39:17.919035 0.00000,0.00000,0.00000,0.00000,0.00000,0.00000,0.00000,0.00000,0.00000,0.00000,0.00000,0.00000 100 0.25764,0.27254,0.07346 0.08801,-0.04065,0.85913 -0.33000,-0.08850,-0.56700 0.25764,0.27254,0.07346 0.08801,-0.04065,0.85913 -0.32920,-0.09450,-0.56322 0.03568,-0.13743,-0.04701
06/24/24 13:39:17.963039 0.00000,0.00000,0.00000,0.00000,0.00000,0.00000,0.00000,0.00000,0.00000,0.00000,0.00000,0.00000 100 -0.09688,0.38007,-0.07026 -0.07910,-0.00732,0.85602 -0.31950,-0.09600,-0.56100 -0.09688,0.38007,-0.07026 -0.07910,-0.00732,0.85602 -0.32732,-0.09710,-0.56323 -0.02596,-0.14632,0.09819
06/24/24 13:39:18.007092 0.00000,0.00000,0.00000,0.00000,0.00000,0.00000,0.00000,0.00000,0.00000,0.00000,0.00000,0.00000 100 -1.34355,0.09475,-0.96029 -0.09491,-0.14856,-0.27234 -0.32250,-0.10050,-0.56100 -1.34355,0.09475,-0.96029 -0.09491,-0.14856,-0.27234 -0.32315,-0.10001,-0.56143 0.12687,-1.27079,0.12579
06/24/24 13:39:18.050812 0.00000,0.00000,0.00000,0.00000,0.00000,0.00000,0.00000,0.00000,0.00000,0.00000,0.00000,0.00000 100 0.35239,1.20834,0.07133 -0.13641,-0.17999,1.29944 -0.31800,-0.08250,-0.56400 0.35239,1.20834,0.07133 -0.13641,-0.17999,1.29944 -0.32086,-0.07719,-0.56728 0.02689,0.30751,0.17100
06/24/24 13:39:18.094845 0.00000,0.00000,0.00000,0.00000,0.00000,0.00000,0.00000,0.00000,0.00000,0.00000,0.00000,0.00000 100 -0.04684,-0.03939,-0.22144 -0.05359,-0.01959,1.05859 -0.30750,-0.07950,-0.57300 -0.04684,-0.03939,-0.22144 -0.05359,-0.01959,1.05859 -0.31305,-0.07889,-0.57184 -0.07031,0.05720,0.03555
06/24/24 13:39:18.138454 0.00000,0.00000,0.00000,0.00000,0.00000,0.00000,0.00000,0.00000,0.00000,0.00000,0.00000,0.00000 100 0.22570,-0.14798,0.06388 -0.02441,-0.06110,0.91559 -0.30900,-0.07800,-0.57300 0.22570,-0.14798,0.06388 -0.02441,-0.06110,0.91559 -0.31221,-0.07868,-0.57131 -0.00114,-0.08240,0.02531
06/24/24 13:39:18.182709 0.00000,0.00000,0.00000,0.00000,0.00000,0.00000,0.00000,0.00000,0.00000,0.00000,0.00000,0.00000 100 -0.16502,-0.44288,0.27254 0.04791,-0.02710,1.13776 -0.31350,-0.08400,-0.56700 -0.16502,-0.44288,0.27254 0.04791,-0.02710,1.13776 -0.31228,-0.07889,-0.57100 -0.02338,0.13786,-0.04731
06/24/24 13:39:18.226740 0.00000,0.00000,0.00000,0.00000,0.00000,0.00000,0.00000,0.00000,0.00000,0.00000,0.00000,0.00000 100 -0.12669,-0.73565,1.04013 0.10754,-0.09387,1.07465 -0.31500,-0.07500,-0.56550 -0.12669,-0.73565,1.04013 0.10754,-0.09387,1.07465 -0.31338,-0.07769,-0.56925 0.04402,0.08143,-0.06182
06/24/24 13:39:18.270235 0.00000,0.00000,0.00000,0.00000,0.00000,0.00000,0.00000,0.00000,0.00000,0.00000,0.00000,0.00000 100 -0.14905,-0.09688,0.59619 0.36401,0.15991,0.51508 -0.33600,-0.05850,-0.56250 -0.14905,-0.09688,0.59619 0.36401,0.15991,0.51508 -0.33104,-0.06263,-0.56261 -0.11535,-0.47926,-0.37271
06/24/24 13:39:18.314432 0.00000,0.00000,0.00000,0.00000,0.00000,0.00000,0.00000,0.00000,0.00000,0.00000,0.00000,0.00000 100 0.35878,0.09582,0.18311 -0.03595,-0.06659,1.00555 -0.32700,-0.04950,-0.56250 0.35878,0.09582,0.18311 -0.03595,-0.06659,1.00555 -0.32650,-0.04887,-0.55758 -0.04141,0.00575,0.06017
06/24/24 13:39:18.357891 0.00000,0.00000,0.00000,0.00000,0.00000,0.00000,0.00000,0.00000,0.00000,0.00000,0.00000,0.00000 100 0.51634,0.10114,-0.05217 0.00696,-0.04956,1.02899 -0.32400,-0.05250,-0.55950 0.51634,0.10114,-0.05217 0.00696,-0.04956,1.02899 -0.32663,-0.04870,-0.55799 -0.03616,0.02953,0.00976
06/24/24 13:39:18.401855 0.00000,0.00000,0.00000,0.00000,0.00000,0.00000,0.00000,0.00000,0.00000,0.00000,0.00000,0.00000 100 0.21079,0.17140,-0.10966 -0.00208,-0.00964,0.96173 -0.32850,-0.05250,-0.57300 0.21079,0.17140,-0.10966 -0.00208,-0.00964,0.96173 -0.32669,-0.04929,-0.55874 -0.07544,-0.04122,-0.00892
06/24/24 13:39:18.446041 0.00000,0.00000,0.00000,0.00000,0.00000,0.00000,0.00000,0.00000,0.00000,0.00000,0.00000,0.00000 100 0.15011,0.21399,-0.05962 -0.02551,-0.05457,1.01221 -0.32400,-0.05700,-0.56550 0.15011,0.21399,-0.05962 -0.02551,-0.05457,1.01221 -0.32634,-0.05051,-0.55927 -0.04814,0.01281,0.00914
06/24/24 13:39:18.489580 0.00000,0.00000,0.00000,0.00000,0.00000,0.00000,0.00000,0.00000,0.00000,0.00000,0.00000,0.00000 100 0.05855,0.20334,-0.15118 -0.02917,-0.02301,0.98364 -0.31950,-0.06900,-0.56700 0.05855,0.20334,-0.15118 -0.02917,-0.02301,0.98364 -0.32624,-0.05168,-0.55990 -0.08190,-0.01909,-0.00580
06/24/24 13:39:18.533607 0.00000,0.00000,0.00000,0.00000,0.00000,0.00000,0.00000,0.00000,0.00000,0.00000,0.00000,0.00000 100 0.22038,0.26935,-0.02768 -0.03851,-0.01300,0.96173 -0.31800,-0.06450,-0.57300 0.22038,0.26935,-0.02768 -0.03851,-0.01300,0.96173 -0.32483,-0.05415,-0.56217 -0.09206,-0.04185,-0.00684
06/24/24 13:39:18.577318 0.00000,0.00000,0.00000,0.00000,0.00000,0.00000,0.00000,0.00000,0.00000,0.00000,0.00000,0.00000 100 0.09049,0.17460,-0.05430 0.00134,-0.00726,0.96472 -0.30750,-0.06750,-0.57150 0.09049,0.17460,-0.05430 0.00134,-0.00726,0.96472 -0.32178,-0.06021,-0.56580 -0.08202,-0.04014,-0.05177
06/24/24 13:39:18.621298 0.00000,0.00000,0.00000,0.00000,0.00000,0.00000,0.00000,0.00000,0.00000,0.00000,0.00000,0.00000 100 -0.05855,0.07878,-0.23528 0.00293,-0.02374,0.95630 -0.31500,-0.07200,-0.57750 -0.05855,0.07878,-0.23528 0.00293,-0.02374,0.95630 -0.31805,-0.06479,-0.56812 -0.06011,-0.04652,-0.04842
06/24/24 13:39:18.665508 0.00000,0.00000,0.00000,0.00000,0.00000,0.00000,0.00000,0.00000,0.00000,0.00000,0.00000,0.00000 100 -0.02023,0.06281,-0.31406 -0.01294,0.01038,1.00574 -0.30300,-0.07500,-0.57750 -0.02023,0.06281,-0.31406 -0.01294,0.01038,1.00574 -0.31211,-0.06844,-0.57071 -0.09399,0.00064,-0.04094
06/24/24 13:39:18.709044 0.00000,0.00000,0.00000,0.00000,0.00000,0.00000,0.00000,0.00000,0.00000,0.00000,0.00000,0.00000 100 0.00958,0.09475,-0.33003 -0.08289,0.02490,0.96057 -0.31050,-0.07950,-0.57750 0.00958,0.09475,-0.33003 -0.08289,0.02490,0.96057 -0.31165,-0.07374,-0.57465 -0.11562,-0.04293,0.02895
06/24/24 13:39:18.753105 0.00000,0.00000,0.00000,0.00000,0.00000,0.00000,0.00000,0.00000,0.00000,0.00000,0.00000,0.00000 100 -0.14692,-0.00532,-0.28638 -0.12219,-0.00226,0.97601 -0.30750,-0.07650,-0.57750 -0.14692,-0.00532,-0.28638 -0.12219,-0.00226,0.97601 -0.30634,-0.07714,-0.57771 -0.09271,-0.02368,0.07574
06/24/24 13:39:18.796736 0.00000,0.00000,0.00000,0.00000,0.00000,0.00000,0.00000,0.00000,0.00000,0.00000,0.00000,0.00000 100 -0.08836,-0.02768,-0.32471 -0.17261,0.05054,0.94983 -0.31050,-0.08250,-0.57600 -0.08836,-0.02768,-0.32471 -0.17261,0.05054,0.94983 -0.30954,-0.08122,-0.57715 -0.14865,-0.05049,0.10423
06/24/24 13:39:18.840979 0.00000,0.00000,0.00000,0.00000,0.00000,0.00000,0.00000,0.00000,0.00000,0.00000,0.00000,0.00000 100 -0.11924,-0.11817,-0.31300 -0.11383,0.02179,0.97772 -0.30900,-0.07950,-0.58050 -0.11924,-0.11817,-0.31300 -0.11383,0.02179,0.97772 -0.31024,-0.07785,-0.57790 -0.10167,-0.02229,0.05577
06/24/24 13:39:18.884962 0.00000,0.00000,0.00000,0.00000,0.00000,0.00000,0.00000,0.00000,0.00000,0.00000,0.00000,0.00000 100 -0.30448,-0.08091,-0.38859 -0.07269,0.02631,0.93353 -0.31500,-0.08100,-0.58050 -0.30448,-0.08091,-0.38859 -0.07269,0.02631,0.93353 -0.31206,-0.08143,-0.57950 -0.09288,-0.06808,0.01891
06/24/24 13:39:18.928661 0.00000,0.00000,0.00000,0.00000,0.00000,0.00000,0.00000,0.00000,0.00000,0.00000,0.00000,0.00000 100 -0.47482,0.19376,-0.37581 -0.14160,-0.09729,1.11792 -0.31350,-0.07050,-0.58050 -0.47482,0.19376,-0.37581 -0.14160,-0.09729,1.11792 -0.31128,-0.08059,-0.57987 -0.02130,0.12533,0.11150
06/24/24 13:39:18.972668 0.00000,0.00000,0.00000,0.00000,0.00000,0.00000,0.00000,0.00000,0.00000,0.00000,0.00000,0.00000 100 -0.01171,0.33748,-0.20334 -0.20264,-0.11414,0.98566 -0.30600,-0.07200,-0.58050 -0.01171,0.33748,-0.20334 -0.20264,-0.11414,0.98566 -0.30796,-0.07513,-0.58122 -0.02901,-0.00071,0.16182
06/24/24 13:39:19.016193 0.00000,0.00000,0.00000,0.00000,0.00000,0.00000,0.00000,0.00000,0.00000,0.00000,0.00000,0.00000 100 -0.39817,0.29809,-0.33429 0.03802,-0.17737,0.95990 -0.30450,-0.07050,-0.58050 -0.39817,0.29809,-0.33429 0.03802,-0.17737,0.95990 -0.30592,-0.07160,-0.58056 0.11281,-0.03089,-0.04907
06/24/24 13:39:19.060333 0.00000,0.00000,0.00000,0.00000,0.00000,0.00000,0.00000,0.00000,0.00000,0.00000,0.00000,0.00000 100 -0.11179,0.46098,-0.57277 0.04901,-0.17981,0.87311 -0.30000,-0.06450,-0.58950 -0.11179,0.46098,-0.57277 0.04901,-0.17981,0.87311 -0.29867,-0.06702,-0.58584 0.10789,-0.11536,-0.05309
06/24/24 13:39:19.104254 0.00000,0.00000,0.00000,0.00000,0.00000,0.00000,0.00000,0.00000,0.00000,0.00000,0.00000,0.00000 100 -0.39072,0.47376,-0.79208 0.01398,-0.17365,0.95355 -0.28650,-0.06600,-0.58950 -0.39072,0.47376,-0.79208 0.01398,-0.17365,0.95355 -0.29017,-0.06702,-0.58865 0.07555,-0.03455,-0.04260
06/24/24 13:39:19.147696 0.00000,0.00000,0.00000,0.00000,0.00000,0.00000,0.00000,0.00000,0.00000,0.00000,0.00000,0.00000 100 -0.29277,0.34281,-0.63025 -0.09027,-0.23315,1.04437 -0.27900,-0.07200,-0.58950 -0.29277,0.34281,-0.63025 -0.09027,-0.23315,1.04437 -0.28953,-0.06686,-0.58909 0.05967,0.07111,0.04880
06/24/24 13:39:19.191809 0.00000,0.00000,0.00000,0.00000,0.00000,0.00000,0.00000,0.00000,0.00000,0.00000,0.00000,0.00000 100 -0.13201,0.05536,-0.53444 -0.08514,-0.23578,1.02020 -0.27900,-0.06450,-0.59250 -0.13201,0.05536,-0.53444 -0.08514,-0.23578,1.02020 -0.28793,-0.06707,-0.59026 0.04632,0.04790,0.05840
06/24/24 13:39:19.235291 0.00000,0.00000,0.00000,0.00000,0.00000,0.00000,0.00000,0.00000,0.00000,0.00000,0.00000,0.00000 100 0.12669,-0.09582,-0.30980 -0.06482,-0.20581,0.98694 -0.27300,-0.06000,-0.59550 0.12669,-0.09582,-0.30980 -0.06482,-0.20581,0.98694 -0.28691,-0.06707,-0.59073 0.02880,0.00915,0.03724
06/24/24 13:39:19.279236 0.00000,0.00000,0.00000,0.00000,0.00000,0.00000,0.00000,0.00000,0.00000,0.00000,0.00000,0.00000 100 -0.12137,-0.15011,-0.15969 0.03821,-0.21387,0.94513 -0.28200,-0.07950,-0.59700 -0.12137,-0.15011,-0.15969 0.03821,-0.21387,0.94513 -0.28507,-0.07051,-0.59246 0.07774,-0.03360,-0.02236
06/24/24 13:39:19.323368 0.00000,0.00000,0.00000,0.00000,0.00000,0.00000,0.00000,0.00000,0.00000,0.00000,0.00000,0.00000 100 -0.19695,-0.07985,-0.13521 0.00732,-0.24530,0.95221 -0.28050,-0.07050,-0.58800 -0.19695,-0.07985,-0.13521 0.00732,-0.24530,0.95221 -0.28164,-0.07240,-0.59465 0.06734,-0.01935,0.02684
06/24/24 13:39:19.366791 0.00000,0.00000,0.00000,0.00000,0.00000,0.00000,0.00000,0.00000,0.00000,0.00000,0.00000,0.00000 100 0.03300,-0.08198,-0.15011 0.00098,-0.23706,0.99188 -0.28350,-0.06600,-0.59700 0.03300,-0.08198,-0.15011 0.00098,-0.23706,0.99188 -0.28143,-0.07236,-0.59337 0.04197,0.01859,0.02740
06/24/24 13:39:19.410704 0.00000,0.00000,0.00000,0.00000,0.00000,0.00000,0.00000,0.00000,0.00000,0.00000,0.00000,0.00000 100 0.06281,-0.10220,-0.08730 -0.01526,-0.19202,0.97827 -0.28200,-0.07200,-0.59700 0.06281,-0.10220,-0.08730 -0.01526,-0.19202,0.97827 -0.28147,-0.07222,-0.59353 -0.00860,-0.00332,0.02577
06/24/24 13:39:19.454296 0.00000,0.00000,0.00000,0.00000,0.00000,0.00000,0.00000,0.00000,0.00000,0.00000,0.00000,0.00000 100 0.00106,-0.04684,-0.07452 -0.02264,-0.20288,0.94653 -0.28650,-0.07800,-0.59100 0.00106,-0.04684,-0.07452 -0.02264,-0.20288,0.94653 -0.28172,-0.07225,-0.59334 -0.00424,-0.03275,0.04481
06/24/24 13:39:19.498196 0.00000,0.00000,0.00000,0.00000,0.00000,0.00000,0.00000,0.00000,0.00000,0.00000,0.00000,0.00000 100 0.02662,0.04046,-0.10327 -0.06836,-0.21021,0.97833 -0.28800,-0.07050,-0.59850 0.02662,0.04046,-0.10327 -0.06836,-0.21021,0.97833 -0.28234,-0.07246,-0.59369 -0.03256,-0.00107,0.08409
06/24/24 13:39:19.542111 0.00000,0.00000,0.00000,0.00000,0.00000,0.00000,0.00000,0.00000,0.00000,0.00000,0.00000,0.00000 100 -0.03513,-0.02555,-0.03939 -0.08221,-0.19501,0.96924 -0.28500,-0.07050,-0.59400 -0.03513,-0.02555,-0.03939 -0.08221,-0.19501,0.96924 -0.28265,-0.07269,-0.59450 -0.05310,-0.01317,0.08697
06/24/24 13:39:19.585760 0.00000,0.00000,0.00000,0.00000,0.00000,0.00000,0.00000,0.00000,0.00000,0.00000,0.00000,0.00000 100 -0.09262,-0.07772,0.03726 -0.01825,-0.21796,0.95746 -0.28650,-0.07500,-0.59250 -0.09262,-0.07772,0.03726 -0.01825,-0.21796,0.95746 -0.28329,-0.07289,-0.59393 -0.00033,-0.01893,0.04543
06/24/24 13:39:19.629719 0.00000,0.00000,0.00000,0.00000,0.00000,0.00000,0.00000,0.00000,0.00000,0.00000,0.00000,0.00000 100 -0.09369,0.00958,0.00745 -0.01123,-0.23737,0.97681 -0.29250,-0.07200,-0.59400 -0.09369,0.00958,0.00745 -0.01123,-0.23737,0.97681 -0.28363,-0.07267,-0.59395 0.01273,0.00420,0.04526
06/24/24 13:39:19.673737 0.00000,0.00000,0.00000,0.00000,0.00000,0.00000,0.00000,0.00000,0.00000,0.00000,0.00000,0.00000 100 0.02342,-0.00319,-0.07346 -0.03113,-0.18970,0.98199 -0.28500,-0.06300,-0.59850 0.02342,-0.00319,-0.07346 -0.03113,-0.18970,0.98199 -0.28408,-0.07238,-0.59411 -0.03725,-0.00063,0.03363
06/24/24 13:39:19.717384 0.00000,0.00000,0.00000,0.00000,0.00000,0.00000,0.00000,0.00000,0.00000,0.00000,0.00000,0.00000 100 0.03407,-0.02874,-0.09475 -0.02728,-0.18762,0.96808 -0.28800,-0.06900,-0.59400 0.03407,-0.02874,-0.09475 -0.02728,-0.18762,0.96808 -0.28418,-0.07234,-0.59392 -0.03288,-0.01459,0.03172
06/24/24 13:39:19.761364 0.00000,0.00000,0.00000,0.00000,0.00000,0.00000,0.00000,0.00000,0.00000,0.00000,0.00000,0.00000 100 -0.06920,0.04046,-0.09901 -0.05640,-0.20184,0.95947 -0.29400,-0.07050,-0.59550 -0.06920,0.04046,-0.09901 -0.05640,-0.20184,0.95947 -0.28473,-0.07206,-0.59384 -0.03622,-0.02061,0.06317
06/24/24 13:39:19.804819 0.00000,0.00000,0.00000,0.00000,0.00000,0.00000,0.00000,0.00000,0.00000,0.00000,0.00000,0.00000 100 -0.03300,0.01703,-0.07772 -0.05908,-0.21045,0.97900 -0.29250,-0.07200,-0.59400 -0.03300,0.01703,-0.07772 -0.05908,-0.21045,0.97900 -0.28556,-0.07155,-0.59323 -0.03444,0.00036,0.06572
06/24/24 13:39:19.848953 0.00000,0.00000,0.00000,0.00000,0.00000,0.00000,0.00000,0.00000,0.00000,0.00000,0.00000,0.00000 100 0.01171,-0.00213,-0.07133 -0.05750,-0.20654,0.97137 -0.28950,-0.06900,-0.59550 0.01171,-0.00213,-0.07133 -0.05750,-0.20654,0.97137 -0.28588,-0.07166,-0.59337 -0.03491,-0.00783,0.06259
06/24/24 13:39:19.892906 0.00000,0.00000,0.00000,0.00000,0.00000,0.00000,0.00000,0.00000,0.00000,0.00000,0.00000,0.00000 100 -0.00213,0.01171,-0.07772 -0.06982,-0.19910,0.96753 -0.28650,-0.07050,-0.59700 -0.00213,0.01171,-0.07772 -0.06982,-0.19910,0.96753 -0.28736,-0.07129,-0.59407 -0.04543,-0.01313,0.06815
06/24/24 13:39:19.936390 0.00000,0.00000,0.00000,0.00000,0.00000,0.00000,0.00000,0.00000,0.00000,0.00000,0.00000,0.00000 100 -0.03833,0.00213,-0.04471 -0.04846,-0.19153,0.95782 -0.29250,-0.07650,-0.59250 -0.03833,0.00213,-0.04471 -0.04846,-0.19153,0.95782 -0.28761,-0.07230,-0.59428 -0.03606,-0.02381,0.04696
06/24/24 13:39:19.980549 0.00000,0.00000,0.00000,0.00000,0.00000,0.00000,0.00000,0.00000,0.00000,0.00000,0.00000,0.00000 100 -0.04258,0.03194,-0.03194 -0.05487,-0.19653,0.97644 -0.29100,-0.07200,-0.59700 -0.04258,0.03194,-0.03194 -0.05487,-0.19653,0.97644 -0.28777,-0.07193,-0.59453 -0.03753,-0.00446,0.05066
06/24/24 13:39:20.024071 0.00000,0.00000,0.00000,0.00000,0.00000,0.00000,0.00000,0.00000,0.00000,0.00000,0.00000,0.00000 100 -0.01916,0.03407,-0.02236 -0.06134,-0.19543,0.96570 -0.28650,-0.06750,-0.59250 -0.01916,0.03407,-0.02236 -0.06134,-0.19543,0.96570 -0.28784,-0.07166,-0.59431 -0.03849,-0.01509,0.05473
06/24/24 13:39:20.068062 0.00000,0.00000,0.00000,0.00000,0.00000,0.00000,0.00000,0.00000,0.00000,0.00000,0.00000,0.00000 100 -0.02023,0.02662,0.00426 -0.07263,-0.20117,0.96661 -0.28950,-0.07500,-0.59550 -0.02023,0.02662,0.00426 -0.07263,-0.20117,0.96661 -0.28796,-0.07096,-0.59473 -0.03830,-0.01293,0.06570
06/24/24 13:39:20.112221 0.00000,0.00000,0.00000,0.00000,0.00000,0.00000,0.00000,0.00000,0.00000,0.00000,0.00000,0.00000 100 -0.03194,-0.02023,0.03087 -0.06958,-0.19891,0.97284 -0.29100,-0.07500,-0.59400 -0.03194,-0.02023,0.03087 -0.06958,-0.19891,0.97284 -0.28835,-0.07073,-0.59496 -0.03695,-0.00711,0.06022
06/24/24 13:39:20.155699 0.00000,0.00000,0.00000,0.00000,0.00000,0.00000,0.00000,0.00000,0.00000,0.00000,0.00000,0.00000 100 -0.01384,0.01597,0.01384 -0.05542,-0.20337,0.95837 -0.28950,-0.06750,-0.59700 -0.01384,0.01597,0.01384 -0.05542,-0.20337,0.95837 -0.28846,-0.07073,-0.59467 -0.02097,-0.02030,0.05154
06/24/24 13:39:20.199669 0.00000,0.00000,0.00000,0.00000,0.00000,0.00000,0.00000,0.00000,0.00000,0.00000,0.00000,0.00000 100 -0.02023,0.02768,0.01384 -0.05029,-0.20471,0.96924 -0.28800,-0.07200,-0.59250 -0.02023,0.02768,0.01384 -0.05029,-0.20471,0.96924 -0.28840,-0.07109,-0.59444 -0.01687,-0.00932,0.04603
06/24/24 13:39:20.243301 0.00000,0.00000,0.00000,0.00000,0.00000,0.00000,0.00000,0.00000,0.00000,0.00000,0.00000,0.00000 100 -0.01597,-0.01597,-0.00852 -0.05017,-0.19922,0.96069 -0.29100,-0.06750,-0.59250 -0.01597,-0.01597,-0.00852 -0.05017,-0.19922,0.96069 -0.28837,-0.07065,-0.59404 -0.01813,-0.01872,0.04363
06/24/24 13:39:20.287270 0.00000,0.00000,0.00000,0.00000,0.00000,0.00000,0.00000,0.00000,0.00000,0.00000,0.00000,0.00000 100 -0.00106,0.00532,-0.03833 -0.05768,-0.20264,0.96368 -0.28500,-0.06750,-0.59400 -0.00106,0.00532,-0.03833 -0.05768,-0.20264,0.96368 -0.28846,-0.07037,-0.59400 -0.01861,-0.01506,0.05130
06/24/24 13:39:20.331240 0.00000,0.00000,0.00000,0.00000,0.00000,0.00000,0.00000,0.00000,0.00000,0.00000,0.00000,0.00000 100 -0.03300,0.00000,-0.03513 -0.06116,-0.20618,0.97351 -0.28050,-0.06000,-0.59550 -0.03300,0.00000,-0.03513 -0.06116,-0.20618,0.97351 -0.28815,-0.07009,-0.59409 -0.01863,-0.00470,0.05486
06/24/24 13:39:20.374908 0.00000,0.00000,0.00000,0.00000,0.00000,0.00000,0.00000,0.00000,0.00000,0.00000,0.00000,0.00000 100 0.01597,0.01490,-0.01171 -0.06219,-0.20502,0.97168 -0.28800,-0.06900,-0.59250 0.01597,0.01490,-0.01171 -0.06219,-0.20502,0.97168 -0.28803,-0.06995,-0.59410 -0.01851,-0.00671,0.05561
06/24/24 13:39:20.418867 0.00000,0.00000,0.00000,0.00000,0.00000,0.00000,0.00000,0.00000,0.00000,0.00000,0.00000,0.00000 100 0.01384,0.00000,-0.03620 -0.06671,-0.21045,0.96228 -0.28500,-0.07650,-0.59250 0.01384,0.00000,-0.03620 -0.06671,-0.21045,0.96228 -0.28794,-0.06995,-0.59407 -0.01364,-0.01490,0.06409
06/24/24 13:39:20.462334 0.00000,0.00000,0.00000,0.00000,0.00000,0.00000,0.00000,0.00000,0.00000,0.00000,0.00000,0.00000 100 -0.00745,0.00106,-0.02768 -0.06018,-0.20612,0.96649 -0.29100,-0.06450,-0.59550 -0.00745,0.00106,-0.02768 -0.06018,-0.20612,0.96649 -0.28778,-0.06985,-0.59424 -0.01317,-0.01163,0.05619
06/24/24 13:39:20.506475 0.00000,0.00000,0.00000,0.00000,0.00000,0.00000,0.00000,0.00000,0.00000,0.00000,0.00000,0.00000 100 0.04471,-0.00852,-0.05110 -0.05640,-0.20300,0.96039 -0.28200,-0.06600,-0.59400 0.04471,-0.00852,-0.05110 -0.05640,-0.20300,0.96039 -0.28775,-0.06998,-0.59421 -0.01134,-0.01826,0.05280
06/24/24 13:39:20.550430 0.00000,0.00000,0.00000,0.00000,0.00000,0.00000,0.00000,0.00000,0.00000,0.00000,0.00000,0.00000 100 0.02662,0.02981,-0.07026 -0.05103,-0.20398,0.96484 -0.28500,-0.07050,-0.59250 0.02662,0.02981,-0.07026 -0.05103,-0.20398,0.96484 -0.28751,-0.06978,-0.59414 -0.00710,-0.01371,0.04813
06/24/24 13:39:20.593910 0.00000,0.00000,0.00000,0.00000,0.00000,0.00000,0.00000,0.00000,0.00000,0.00000,0.00000,0.00000 100 0.04578,0.00213,-0.04791 -0.06036,-0.20398,0.96899 -0.27900,-0.07050,-0.59250 0.04578,0.00213,-0.04791 -0.06036,-0.20398,0.96899 -0.28714,-0.06972,-0.59413 -0.01131,-0.00957,0.05585
06/24/24 13:39:20.638058 0.00000,0.00000,0.00000,0.00000,0.00000,0.00000,0.00000,0.00000,0.00000,0.00000,0.00000,0.00000 100 0.01171,0.01278,-0.05430 -0.05890,-0.20789,0.95471 -0.28800,-0.06900,-0.59400 0.01171,0.01278,-0.05430 -0.05890,-0.20789,0.95471 -0.28687,-0.06985,-0.59401 -0.00419,-0.02289,0.05835
06/24/24 13:39:20.681562 0.00000,0.00000,0.00000,0.00000,0.00000,0.00000,0.00000,0.00000,0.00000,0.00000,0.00000,0.00000 100 0.00852,0.01916,-0.07133 -0.06134,-0.20508,0.96960 -0.28800,-0.07200,-0.59850 0.00852,0.01916,-0.07133 -0.06134,-0.20508,0.96960 -0.28684,-0.07019,-0.59403 -0.00947,-0.00872,0.05675
06/24/24 13:39:20.725548 0.00000,0.00000,0.00000,0.00000,0.00000,0.00000,0.00000,0.00000,0.00000,0.00000,0.00000,0.00000 100 0.02023,0.02023,-0.05004 -0.06110,-0.19678,0.96454 -0.28050,-0.07950,-0.59100 0.02023,0.02023,-0.05004 -0.06110,-0.19678,0.96454 -0.28652,-0.07034,-0.59402 -0.01490,-0.01521,0.05243
06/24/24 13:39:20.769695 0.00000,0.00000,0.00000,0.00000,0.00000,0.00000,0.00000,0.00000,0.00000,0.00000,0.00000,0.00000 100 0.00319,0.03620,-0.04258 -0.06134,-0.19629,0.97064 -0.28350,-0.07950,-0.60000 0.00319,0.03620,-0.04258 -0.06134,-0.19629,0.97064 -0.28649,-0.07064,-0.59437 -0.01567,-0.00925,0.05098
06/24/24 13:39:20.813192 0.00000,0.00000,0.00000,0.00000,0.00000,0.00000,0.00000,0.00000,0.00000,0.00000,0.00000,0.00000 100 0.00426,0.00852,-0.03513 -0.06488,-0.19794,0.96692 -0.27300,-0.06900,-0.60300 0.00426,0.00852,-0.03513 -0.06488,-0.19794,0.96692 -0.28592,-0.07096,-0.59457 -0.01502,-0.01254,0.05499
06/24/24 13:39:20.857166 0.00000,0.00000,0.00000,0.00000,0.00000,0.00000,0.00000,0.00000,0.00000,0.00000,0.00000,0.00000 100 0.00532,0.01171,-0.02662 -0.06512,-0.19635,0.97339 -0.27900,-0.08550,-0.59550 0.00532,0.01171,-0.02662 -0.06512,-0.19635,0.97339 -0.28570,-0.07148,-0.59470 -0.01711,-0.00643,0.05302
06/24/24 13:39:20.900822 0.00000,0.00000,0.00000,0.00000,0.00000,0.00000,0.00000,0.00000,0.00000,0.00000,0.00000,0.00000 100 0.02236,0.01490,-0.01916 -0.06348,-0.19800,0.96790 -0.28500,-0.07800,-0.59250 0.02236,0.01490,-0.01916 -0.06348,-0.19800,0.96790 -0.28552,-0.07186,-0.59483 -0.01368,-0.01154,0.05303
06/24/24 13:39:20.944788 0.00000,0.00000,0.00000,0.00000,0.00000,0.00000,0.00000,0.00000,0.00000,0.00000,0.00000,0.00000 100 0.00852,-0.00852,-0.02768 -0.07361,-0.19873,0.96472 -0.28200,-0.07050,-0.59550 0.00852,-0.00852,-0.02768 -0.07361,-0.19873,0.96472 -0.28539,-0.07222,-0.59477 -0.01768,-0.01442,0.06254
06/24/24 13:39:20.988815 0.00000,0.00000,0.00000,0.00000,0.00000,0.00000,0.00000,0.00000,0.00000,0.00000,0.00000,0.00000 100 0.01597,0.00745,-0.02342 -0.06805,-0.20953,0.96344 -0.28050,-0.07800,-0.59850 0.01597,0.00745,-0.02342 -0.06805,-0.20953,0.96344 -0.28507,-0.07247,-0.59523 -0.00478,-0.01376,0.06373
06/24/24 13:39:21.032476 0.00000,0.00000,0.00000,0.00000,0.00000,0.00000,0.00000,0.00000,0.00000,0.00000,0.00000,0.00000 100 0.03194,0.02662,-0.01384 -0.07098,-0.19995,0.97205 -0.28200,-0.08550,-0.59250 0.03194,0.02662,-0.01384 -0.07098,-0.19995,0.97205 -0.28504,-0.07300,-0.59542 -0.01436,-0.00698,0.05993
06/24/24 13:39:21.076426 0.00000,0.00000,0.00000,0.00000,0.00000,0.00000,0.00000,0.00000,0.00000,0.00000,0.00000,0.00000 100 0.00319,0.00319,0.01703 -0.07550,-0.18805,0.95715 -0.27900,-0.08250,-0.59850 0.00319,0.00319,0.01703 -0.07550,-0.18805,0.95715 -0.28480,-0.07332,-0.59578 -0.02348,-0.02368,0.05879
06/24/24 13:39:21.119921 0.00000,0.00000,0.00000,0.00000,0.00000,0.00000,0.00000,0.00000,0.00000,0.00000,0.00000,0.00000 100 -0.04684,0.00639,0.02129 -0.06921,-0.20105,0.95746 -0.28800,-0.07350,-0.59850 -0.04684,0.00639,0.02129 -0.06921,-0.20105,0.95746 -0.28473,-0.07371,-0.59596 -0.00960,-0.02106,0.05932
06/24/24 13:39:21.164066 0.00000,0.00000,0.00000,0.00000,0.00000,0.00000,0.00000,0.00000,0.00000,0.00000,0.00000,0.00000 100 -0.03620,0.00639,0.05004 -0.06866,-0.19434,0.97034 -0.28650,-0.08250,-0.60150 -0.03620,0.00639,0.05004 -0.06866,-0.19434,0.97034 -0.28465,-0.07410,-0.59604 -0.01639,-0.00954,0.05258
06/24/24 13:39:21.208044 0.00000,0.00000,0.00000,0.00000,0.00000,0.00000,0.00000,0.00000,0.00000,0.00000,0.00000,0.00000 100 -0.06068,0.01490,0.06068 -0.06128,-0.19263,0.96045 -0.27750,-0.07650,-0.59400 -0.06068,0.01490,0.06068 -0.06128,-0.19263,0.96045 -0.28453,-0.07454,-0.59615 -0.01238,-0.01963,0.04511
06/24/24 13:39:21.251537 0.00000,0.00000,0.00000,0.00000,0.00000,0.00000,0.00000,0.00000,0.00000,0.00000,0.00000,0.00000 100 -0.05004,0.01810,0.05323 -0.07678,-0.19952,0.97266 -0.28200,-0.07500,-0.59700 -0.05004,0.01810,0.05323 -0.07678,-0.19952,0.97266 -0.28445,-0.07446,-0.59613 -0.01666,-0.00602,0.05906
06/24/24 13:39:21.295685 0.00000,0.00000,0.00000,0.00000,0.00000,0.00000,0.00000,0.00000,0.00000,0.00000,0.00000,0.00000 100 -0.01703,-0.01065,0.04046 -0.07025,-0.21155,0.96796 -0.27750,-0.06750,-0.59850 -0.01703,-0.01065,0.04046 -0.07025,-0.21155,0.96796 -0.28400,-0.07453,-0.59600 -0.00210,-0.00854,0.06021
06/24/24 13:39:21.339170 0.00000,0.00000,0.00000,0.00000,0.00000,0.00000,0.00000,0.00000,0.00000,0.00000,0.00000,0.00000 100 0.01384,-0.00106,0.01810 -0.07581,-0.20807,0.96924 -0.27600,-0.07350,-0.59400 0.01384,-0.00106,0.01810 -0.07581,-0.20807,0.96924 -0.28354,-0.07410,-0.59615 -0.00664,-0.00784,0.06352
06/24/24 13:39:21.383131 0.00000,0.00000,0.00000,0.00000,0.00000,0.00000,0.00000,0.00000,0.00000,0.00000,0.00000,0.00000 100 0.02768,-0.02555,-0.00106 -0.06921,-0.20502,0.96472 -0.28050,-0.06900,-0.58950 0.02768,-0.02555,-0.00106 -0.06921,-0.20502,0.96472 -0.28342,-0.07379,-0.59612 -0.00339,-0.01302,0.05808
06/24/24 13:39:21.427303 0.00000,0.00000,0.00000,0.00000,0.00000,0.00000,0.00000,0.00000,0.00000,0.00000,0.00000,0.00000 100 0.02023,0.01384,-0.00426 -0.07196,-0.21094,0.96844 -0.28050,-0.07350,-0.60300 0.02023,0.01384,-0.00426 -0.07196,-0.21094,0.96844 -0.28312,-0.07403,-0.59634 0.00077,-0.00828,0.06363
06/24/24 13:39:21.470797 0.00000,0.00000,0.00000,0.00000,0.00000,0.00000,0.00000,0.00000,0.00000,0.00000,0.00000,0.00000 100 0.01703,-0.00319,-0.02129 -0.07532,-0.20734,0.96619 -0.27900,-0.07500,-0.59700 0.01703,-0.00319,-0.02129 -0.07532,-0.20734,0.96619 -0.28305,-0.07423,-0.59624 -0.00271,-0.01110,0.06521
06/24/24 13:39:21.514778 0.00000,0.00000,0.00000,0.00000,0.00000,0.00000,0.00000,0.00000,0.00000,0.00000,0.00000,0.00000 100 0.02874,-0.00426,0.01171 -0.07196,-0.19440,0.96149 -0.27600,-0.07950,-0.59100 0.02874,-0.00426,0.01171 -0.07196,-0.19440,0.96149 -0.28282,-0.07455,-0.59607 -0.01022,-0.01813,0.05709
06/24/24 13:39:21.558416 0.00000,0.00000,0.00000,0.00000,0.00000,0.00000,0.00000,0.00000,0.00000,0.00000,0.00000,0.00000 100 -0.02236,-0.00426,0.01916 -0.07434,-0.19757,0.96967 -0.28500,-0.07500,-0.59550 -0.02236,-0.00426,0.01916 -0.07434,-0.19757,0.96967 -0.28275,-0.07459,-0.59628 -0.00986,-0.00947,0.05970
06/24/24 13:39:21.602341 0.00000,0.00000,0.00000,0.00000,0.00000,0.00000,0.00000,0.00000,0.00000,0.00000,0.00000,0.00000 100 -0.02129,-0.01278,0.03194 -0.07843,-0.20636,0.96735 -0.27900,-0.07350,-0.59550 -0.02129,-0.01278,0.03194 -0.07843,-0.20636,0.96735 -0.28263,-0.07466,-0.59614 -0.00517,-0.01008,0.06733
06/24/24 13:39:21.646334 0.00000,0.00000,0.00000,0.00000,0.00000,0.00000,0.00000,0.00000,0.00000,0.00000,0.00000,0.00000 100 -0.01597,-0.00532,0.02023 -0.06665,-0.20044,0.97070 -0.27900,-0.08700,-0.59700 -0.01597,-0.00532,0.02023 -0.06665,-0.20044,0.97070 -0.28229,-0.07519,-0.59615 -0.00472,-0.00803,0.05343
06/24/24 13:39:21.689987 0.00000,0.00000,0.00000,0.00000,0.00000,0.00000,0.00000,0.00000,0.00000,0.00000,0.00000,0.00000 100 -0.00852,0.00426,0.00745 -0.06903,-0.19952,0.96814 -0.28050,-0.07950,-0.59250 -0.00852,0.00426,0.00745 -0.06903,-0.19952,0.96814 -0.28204,-0.07499,-0.59611 -0.00624,-0.01065,0.05501
06/24/24 13:39:21.733963 0.00000,0.00000,0.00000,0.00000,0.00000,0.00000,0.00000,0.00000,0.00000,0.00000,0.00000,0.00000 100 -0.00745,-0.00426,0.00106 -0.07043,-0.20074,0.97101 -0.28350,-0.06600,-0.60300 -0.00745,-0.00426,0.00106 -0.07043,-0.20074,0.97101 -0.28214,-0.07501,-0.59630 -0.00616,-0.00756,0.05611
06/24/24 13:39:21.777473 0.00000,0.00000,0.00000,0.00000,0.00000,0.00000,0.00000,0.00000,0.00000,0.00000,0.00000,0.00000 100 0.00319,-0.00319,0.00213 -0.07623,-0.19775,0.96497 -0.27900,-0.07500,-0.59850 0.00319,-0.00319,0.00213 -0.07623,-0.19775,0.96497 -0.28178,-0.07493,-0.59632 -0.01038,-0.01390,0.05977
06/24/24 13:39:21.821621 0.00000,0.00000,0.00000,0.00000,0.00000,0.00000,0.00000,0.00000,0.00000,0.00000,0.00000,0.00000 100 -0.01065,-0.00319,0.01065 -0.06598,-0.20801,0.96161 -0.28500,-0.07800,-0.59100 -0.01065,-0.00319,0.01065 -0.06598,-0.20801,0.96161 -0.28171,-0.07476,-0.59620 0.00433,-0.01557,0.05655
06/24/24 13:39:21.865559 0.00000,0.00000,0.00000,0.00000,0.00000,0.00000,0.00000,0.00000,0.00000,0.00000,0.00000,0.00000 100 0.00213,0.02129,0.00852 -0.07593,-0.19836,0.96692 -0.28650,-0.07200,-0.59400 0.00213,0.02129,0.00852 -0.07593,-0.19836,0.96692 -0.28201,-0.07483,-0.59612 -0.00920,-0.01182,0.05884
06/24/24 13:39:21.909046 0.00000,0.00000,0.00000,0.00000,0.00000,0.00000,0.00000,0.00000,0.00000,0.00000,0.00000,0.00000 100 -0.00319,-0.00639,0.00639 -0.06134,-0.20349,0.96362 -0.28050,-0.07350,-0.59700 -0.00319,-0.00639,0.00639 -0.06134,-0.20349,0.96362 -0.28206,-0.07478,-0.59599 0.00351,-0.01448,0.04975
06/24/24 13:39:21.953213 0.00000,0.00000,0.00000,0.00000,0.00000,0.00000,0.00000,0.00000,0.00000,0.00000,0.00000,0.00000 100 0.00852,0.02236,0.00319 -0.06915,-0.20453,0.96454 -0.27450,-0.06900,-0.59400 0.00852,0.02236,0.00319 -0.06915,-0.20453,0.96454 -0.28187,-0.07474,-0.59605 0.00036,-0.01321,0.05659
06/24/24 13:39:21.996666 0.00000,0.00000,0.00000,0.00000,0.00000,0.00000,0.00000,0.00000,0.00000,0.00000,0.00000,0.00000 100 -0.01278,-0.00213,-0.00745 -0.07446,-0.20007,0.96875 -0.28500,-0.07650,-0.59700 -0.01278,-0.00213,-0.00745 -0.07446,-0.20007,0.96875 -0.28192,-0.07481,-0.59627 -0.00660,-0.00974,0.05826
06/24/24 13:39:22.040632 0.00000,0.00000,0.00000,0.00000,0.00000,0.00000,0.00000,0.00000,0.00000,0.00000,0.00000,0.00000 100 -0.01384,-0.00319,-0.00106 -0.07202,-0.20251,0.96368 -0.28200,-0.07050,-0.59250 -0.01384,-0.00319,-0.00106 -0.07202,-0.20251,0.96368 -0.28184,-0.07459,-0.59632 -0.00242,-0.01435,0.05816
06/24/24 13:39:22.084801 0.00000,0.00000,0.00000,0.00000,0.00000,0.00000,0.00000,0.00000,0.00000,0.00000,0.00000,0.00000 100 0.01810,-0.00745,0.00639 -0.07428,-0.20221,0.97186 -0.28050,-0.06600,-0.59550 0.01810,-0.00745,0.00639 -0.07428,-0.20221,0.97186 -0.28184,-0.07433,-0.59621 -0.00481,-0.00629,0.05867
06/24/24 13:39:22.128332 0.00000,0.00000,0.00000,0.00000,0.00000,0.00000,0.00000,0.00000,0.00000,0.00000,0.00000,0.00000 100 -0.00639,-0.00426,0.00532 -0.06989,-0.20306,0.96167 -0.28500,-0.07800,-0.60000 -0.00639,-0.00426,0.00532 -0.06989,-0.20306,0.96167 -0.28186,-0.07424,-0.59612 -0.00047,-0.01628,0.05670
06/24/24 13:39:22.172340 0.00000,0.00000,0.00000,0.00000,0.00000,0.00000,0.00000,0.00000,0.00000,0.00000,0.00000,0.00000 100 -0.01065,0.03087,0.00106 -0.07971,-0.20959,0.97089 -0.28350,-0.07800,-0.59400 -0.01065,0.03087,0.00106 -0.07971,-0.20959,0.97089 -0.28193,-0.07422,-0.59615 -0.00138,-0.00579,0.06676
06/24/24 13:39:22.216028 0.00000,0.00000,0.00000,0.00000,0.00000,0.00000,0.00000,0.00000,0.00000,0.00000,0.00000,0.00000 100 -0.00532,0.00319,0.00319 -0.07922,-0.19739,0.96509 -0.28650,-0.07200,-0.59850 -0.00532,0.00319,0.00319 -0.07922,-0.19739,0.96509 -0.28186,-0.07448,-0.59622 -0.01006,-0.01369,0.06097
06/24/24 13:39:22.260017 0.00000,0.00000,0.00000,0.00000,0.00000,0.00000,0.00000,0.00000,0.00000,0.00000,0.00000,0.00000 100 -0.00426,0.00958,0.00000 -0.06091,-0.20538,0.96057 -0.28050,-0.07950,-0.60150 -0.00426,0.00958,0.00000 -0.06091,-0.20538,0.96057 -0.28187,-0.07455,-0.59627 0.00695,-0.01714,0.05034
06/24/24 13:39:22.304020 0.00000,0.00000,0.00000,0.00000,0.00000,0.00000,0.00000,0.00000,0.00000,0.00000,0.00000,0.00000 100 0.00106,0.00745,0.00532 -0.07391,-0.20471,0.96912 -0.27750,-0.07800,-0.59700 0.00106,0.00745,0.00532 -0.07391,-0.20471,0.96912 -0.28185,-0.07465,-0.59615 -0.00164,-0.00855,0.05987
06/24/24 13:39:22.347721 0.00000,0.00000,0.00000,0.00000,0.00000,0.00000,0.00000,0.00000,0.00000,0.00000,0.00000,0.00000 100 -0.01171,0.00213,-0.02874 -0.06842,-0.20135,0.96643 -0.27900,-0.08100,-0.59700 -0.01171,0.00213,-0.02874 -0.06842,-0.20135,0.96643 -0.28158,-0.07478,-0.59647 -0.00117,-0.01193,0.05411
06/24/24 13:39:22.391705 0.00000,0.00000,0.00000,0.00000,0.00000,0.00000,0.00000,0.00000,0.00000,0.00000,0.00000,0.00000 100 0.00426,0.00532,-0.02768 -0.06665,-0.20697,0.97119 -0.27900,-0.07800,-0.60150 0.00426,0.00532,-0.02768 -0.06665,-0.20697,0.97119 -0.28153,-0.07522,-0.59663 0.00322,-0.00629,0.05499
06/24/24 13:39:22.435738 0.00000,0.00000,0.00000,0.00000,0.00000,0.00000,0.00000,0.00000,0.00000,0.00000,0.00000,0.00000 100 0.00000,0.00213,-0.03194 -0.07849,-0.20306,0.96582 -0.28500,-0.07950,-0.59850 0.00000,0.00213,-0.03194 -0.07849,-0.20306,0.96582 -0.28174,-0.07515,-0.59660 -0.00581,-0.01202,0.06384
06/24/24 13:39:22.479439 0.00000,0.00000,0.00000,0.00000,0.00000,0.00000,0.00000,0.00000,0.00000,0.00000,0.00000,0.00000 100 0.00319,0.00213,-0.02342 -0.07214,-0.20441,0.97028 -0.28200,-0.07950,-0.59250 0.00319,0.00213,-0.02342 -0.07214,-0.20441,0.97028 -0.28169,-0.07505,-0.59664 -0.00235,-0.00753,0.05854
06/24/24 13:39:22.523420 0.00000,0.00000,0.00000,0.00000,0.00000,0.00000,0.00000,0.00000,0.00000,0.00000,0.00000,0.00000 100 0.01384,-0.00106,-0.03300 -0.06500,-0.20111,0.97229 -0.27600,-0.07350,-0.59700 0.01384,-0.00106,-0.03300 -0.06500,-0.20111,0.97229 -0.28152,-0.07523,-0.59672 -0.00158,-0.00631,0.05101
06/24/24 13:39:22.567005 0.00000,0.00000,0.00000,0.00000,0.00000,0.00000,0.00000,0.00000,0.00000,0.00000,0.00000,0.00000 100 -0.00745,0.00745,-0.00745 -0.06726,-0.21002,0.96063 -0.27600,-0.07650,-0.59550 -0.00745,0.00745,-0.00745 -0.06726,-0.21002,0.96063 -0.28129,-0.07539,-0.59648 0.00621,-0.01616,0.05882
06/24/24 13:39:22.611157 0.00000,0.00000,0.00000,0.00000,0.00000,0.00000,0.00000,0.00000,0.00000,0.00000,0.00000,0.00000 100 -0.00532,0.01597,-0.01597 -0.07532,-0.20343,0.97345 -0.28500,-0.07500,-0.59400 -0.00532,0.01597,-0.01597 -0.07532,-0.20343,0.97345 -0.28128,-0.07557,-0.59639 -0.00569,-0.00450,0.06000
06/24/24 13:39:22.655094 0.00000,0.00000,0.00000,0.00000,0.00000,0.00000,0.00000,0.00000,0.00000,0.00000,0.00000,0.00000 100 0.00106,-0.01597,-0.01597 -0.07098,-0.20575,0.96655 -0.28050,-0.07500,-0.59850 0.00106,-0.01597,-0.01597 -0.07098,-0.20575,0.96655 -0.28130,-0.07543,-0.59645 -0.00038,-0.01096,0.05829
06/24/24 13:39:22.698618 0.00000,0.00000,0.00000,0.00000,0.00000,0.00000,0.00000,0.00000,0.00000,0.00000,0.00000,0.00000 100 0.01065,-0.00426,-0.02236 -0.07367,-0.20593,0.96338 -0.28200,-0.07050,-0.59850 0.01065,-0.00426,-0.02236 -0.07367,-0.20593,0.96338 -0.28141,-0.07553,-0.59652 -0.00099,-0.01400,0.06116
06/24/24 13:39:22.742754 0.00000,0.00000,0.00000,0.00000,0.00000,0.00000,0.00000,0.00000,0.00000,0.00000,0.00000,0.00000 100 0.00106,-0.02129,-0.02129 -0.06274,-0.20703,0.96802 -0.28800,-0.07500,-0.59700 0.00106,-0.02129,-0.02129 -0.06274,-0.20703,0.96802 -0.28146,-0.07575,-0.59652 0.00500,-0.00948,0.05199
06/24/24 13:39:22.786308 0.00000,0.00000,0.00000,0.00000,0.00000,0.00000,0.00000,0.00000,0.00000,0.00000,0.00000,0.00000 100 -0.00213,0.00745,-0.01703 -0.06738,-0.20410,0.97156 -0.27900,-0.08400,-0.59100 -0.00213,0.00745,-0.01703 -0.06738,-0.20410,0.97156 -0.28151,-0.07610,-0.59651 -0.00041,-0.00642,0.05407
06/24/24 13:39:22.830298 0.00000,0.00000,0.00000,0.00000,0.00000,0.00000,0.00000,0.00000,0.00000,0.00000,0.00000,0.00000 100 0.00639,-0.00852,-0.00958 -0.06219,-0.19855,0.96539 -0.28200,-0.07500,-0.59850 0.00639,-0.00852,-0.00958 -0.06219,-0.19855,0.96539 -0.28161,-0.07619,-0.59640 -0.00106,-0.01359,0.04765
06/24/24 13:39:22.874455 0.00000,0.00000,0.00000,0.00000,0.00000,0.00000,0.00000,0.00000,0.00000,0.00000,0.00000,0.00000 100 0.00426,-0.01171,-0.03194 -0.07141,-0.20728,0.96216 -0.28500,-0.06900,-0.60000 0.00426,-0.01171,-0.03194 -0.07141,-0.20728,0.96216 -0.28144,-0.07618,-0.59624 0.00169,-0.01504,0.06057
06/24/24 13:39:22.917946 0.00000,0.00000,0.00000,0.00000,0.00000,0.00000,0.00000,0.00000,0.00000,0.00000,0.00000,0.00000 100 0.00958,0.03194,-0.02874 -0.06317,-0.19940,0.96759 -0.28200,-0.07650,-0.59400 0.00958,0.03194,-0.02874 -0.06317,-0.19940,0.96759 -0.28171,-0.07595,-0.59597 -0.00099,-0.01127,0.04890
06/24/24 13:39:22.962069 0.00000,0.00000,0.00000,0.00000,0.00000,0.00000,0.00000,0.00000,0.00000,0.00000,0.00000,0.00000 100 0.01171,0.00958,-0.01171 -0.06250,-0.20105,0.96442 -0.27600,-0.08550,-0.59250 0.01171,0.00958,-0.01171 -0.06250,-0.20105,0.96442 -0.28147,-0.07598,-0.59608 0.00116,-0.01413,0.04977
06/24/24 13:39:23.005526 0.00000,0.00000,0.00000,0.00000,0.00000,0.00000,0.00000,0.00000,0.00000,0.00000,0.00000,0.00000 100 0.01171,-0.00319,0.00319 -0.06567,-0.19989,0.97156 -0.28350,-0.07800,-0.60000 0.01171,-0.00319,0.00319 -0.06567,-0.19989,0.97156 -0.28138,-0.07623,-0.59617 -0.00248,-0.00724,0.05117
06/24/24 13:39:23.049503 0.00000,0.00000,0.00000,0.00000,0.00000,0.00000,0.00000,0.00000,0.00000,0.00000,0.00000,0.00000 100 -0.01916,0.01065,0.00958 -0.07043,-0.20331,0.96606 -0.28800,-0.07800,-0.59850 -0.01916,0.01065,0.00958 -0.07043,-0.20331,0.96606 -0.28175,-0.07657,-0.59606 -0.00159,-0.01194,0.05748
06/24/24 13:39:23.093645 0.00000,0.00000,0.00000,0.00000,0.00000,0.00000,0.00000,0.00000,0.00000,0.00000,0.00000,0.00000 100 -0.00106,-0.00319,-0.00852 -0.07050,-0.20001,0.96869 -0.27900,-0.07800,-0.59400 -0.00106,-0.00319,-0.00852 -0.07050,-0.20001,0.96869 -0.28158,-0.07638,-0.59601 -0.00487,-0.00992,0.05522
06/24/24 13:39:23.137131 0.00000,0.00000,0.00000,0.00000,0.00000,0.00000,0.00000,0.00000,0.00000,0.00000,0.00000,0.00000 100 0.01065,0.00532,-0.00319 -0.06726,-0.20020,0.96436 -0.28050,-0.07950,-0.59550 0.01065,0.00532,-0.00319 -0.06726,-0.20020,0.96436 -0.28142,-0.07650,-0.59616 -0.00185,-0.01422,0.05311
06/24/24 13:39:23.181103 0.00000,0.00000,0.00000,0.00000,0.00000,0.00000,0.00000,0.00000,0.00000,0.00000,0.00000,0.00000 100 0.03939,-0.02236,0.01490 -0.06207,-0.20465,0.96930 -0.28050,-0.07200,-0.59550 0.03939,-0.02236,0.01490 -0.06207,-0.20465,0.96930 -0.28141,-0.07664,-0.59591 0.00456,-0.00873,0.05129
06/24/24 13:39:23.224791 0.00000,0.00000,0.00000,0.00000,0.00000,0.00000,0.00000,0.00000,0.00000,0.00000,0.00000,0.00000 100 0.03407,-0.01703,0.00745 -0.06543,-0.20190,0.97144 -0.27900,-0.07950,-0.60300 0.03407,-0.01703,0.00745 -0.06543,-0.20190,0.97144 -0.28147,-0.07708,-0.59599 0.00066,-0.00709,0.05344
06/24/24 13:39:23.268768 0.00000,0.00000,0.00000,0.00000,0.00000,0.00000,0.00000,0.00000,0.00000,0.00000,0.00000,0.00000 100 0.05110,-0.03407,-0.00958 -0.06567,-0.20209,0.97040 -0.27750,-0.08400,-0.58800 0.05110,-0.03407,-0.00958 -0.06567,-0.20209,0.97040 -0.28121,-0.07699,-0.59603 0.00176,-0.00817,0.05567
06/24/24 13:39:23.312799 0.00000,0.00000,0.00000,0.00000,0.00000,0.00000,0.00000,0.00000,0.00000,0.00000,0.00000,0.00000 100 0.10966,-0.03194,-0.04365 -0.06244,-0.18872,0.97955 -0.27750,-0.07500,-0.59700 0.10966,-0.03194,-0.04365 -0.06244,-0.18872,0.97955 -0.28109,-0.07706,-0.59602 -0.00705,-0.00161,0.04702
06/24/24 13:39:23.356478 0.00000,0.00000,0.00000,0.00000,0.00000,0.00000,0.00000,0.00000,0.00000,0.00000,0.00000,0.00000 100 0.17247,-0.07133,-0.04365 -0.04724,-0.18420,0.98273 -0.28950,-0.08250,-0.59250 0.17247,-0.07133,-0.04365 -0.04724,-0.18420,0.98273 -0.28126,-0.07762,-0.59598 -0.00052,0.00033,0.03534
06/24/24 13:39:23.400415 0.00000,0.00000,0.00000,0.00000,0.00000,0.00000,0.00000,0.00000,0.00000,0.00000,0.00000,0.00000 100 0.25657,-0.10327,-0.13627 -0.03986,-0.19653,0.99329 -0.28800,-0.08850,-0.60150 0.25657,-0.10327,-0.13627 -0.03986,-0.19653,0.99329 -0.28153,-0.07832,-0.59604 0.01563,0.01238,0.04099
06/24/24 13:39:23.443895 0.00000,0.00000,0.00000,0.00000,0.00000,0.00000,0.00000,0.00000,0.00000,0.00000,0.00000,0.00000 100 0.30022,-0.16502,-0.20334 -0.02057,-0.17261,0.98206 -0.28350,-0.09150,-0.59250 0.30022,-0.16502,-0.20334 -0.02057,-0.17261,0.98206 -0.28200,-0.07928,-0.59593 0.01158,-0.00300,0.02234
06/24/24 13:39:23.488035 0.00000,0.00000,0.00000,0.00000,0.00000,0.00000,0.00000,0.00000,0.00000,0.00000,0.00000,0.00000 100 0.30661,-0.12669,-0.34600 -0.00677,-0.16498,0.97144 -0.29400,-0.09750,-0.59400 0.30661,-0.12669,-0.34600 -0.00677,-0.16498,0.97144 -0.28250,-0.08070,-0.59572 0.01765,-0.01493,0.01679
06/24/24 13:39:23.532011 0.00000,0.00000,0.00000,0.00000,0.00000,0.00000,0.00000,0.00000,0.00000,0.00000,0.00000,0.00000 100 0.26722,-0.13734,-0.40668 -0.01697,-0.15759,0.97156 -0.29100,-0.11250,-0.58800 0.26722,-0.13734,-0.40668 -0.01697,-0.15759,0.97156 -0.28309,-0.08285,-0.59518 0.00699,-0.01606,0.02950
06/24/24 13:39:23.575525 0.00000,0.00000,0.00000,0.00000,0.00000,0.00000,0.00000,0.00000,0.00000,0.00000,0.00000,0.00000 100 0.23528,-0.19483,-0.48014 -0.03662,-0.15503,0.96118 -0.29400,-0.13350,-0.58800 0.23528,-0.19483,-0.48014 -0.03662,-0.15503,0.96118 -0.28380,-0.08574,-0.59482 -0.00715,-0.02718,0.05302
06/24/24 13:39:23.619635 0.00000,0.00000,0.00000,0.00000,0.00000,0.00000,0.00000,0.00000,0.00000,0.00000,0.00000,0.00000 100 0.11285,-0.10220,-0.34281 -0.03845,-0.12219,0.96075 -0.29700,-0.13200,-0.58500 0.11285,-0.10220,-0.34281 -0.03845,-0.12219,0.96075 -0.28483,-0.08892,-0.59421 -0.03710,-0.03231,0.04071
06/24/24 13:39:23.663151 0.00000,0.00000,0.00000,0.00000,0.00000,0.00000,0.00000,0.00000,0.00000,0.00000,0.00000,0.00000 100 0.03194,-0.03513,-0.12137 -0.04877,-0.13037,0.96362 -0.30150,-0.13500,-0.58950 0.03194,-0.03513,-0.12137 -0.04877,-0.13037,0.96362 -0.28588,-0.09248,-0.59366 -0.04020,-0.02852,0.05049
06/24/24 13:39:23.707123 0.00000,0.00000,0.00000,0.00000,0.00000,0.00000,0.00000,0.00000,0.00000,0.00000,0.00000,0.00000 100 -0.07878,-0.03194,-0.00213 -0.02979,-0.13208,0.96289 -0.29700,-0.13950,-0.58200 -0.07878,-0.03194,-0.00213 -0.02979,-0.13208,0.96289 -0.28698,-0.09621,-0.59304 -0.03176,-0.02866,0.03146
06/24/24 13:39:23.751295 0.00000,0.00000,0.00000,0.00000,0.00000,0.00000,0.00000,0.00000,0.00000,0.00000,0.00000,0.00000 100 -0.13627,-0.02129,0.09688 -0.02203,-0.11230,0.98492 -0.29700,-0.13500,-0.58350 -0.13627,-0.02129,0.09688 -0.02203,-0.11230,0.98492 -0.28787,-0.09910,-0.59249 -0.05017,-0.00974,0.00720
06/24/24 13:39:23.794838 0.00000,0.00000,0.00000,0.00000,0.00000,0.00000,0.00000,0.00000,0.00000,0.00000,0.00000,0.00000 100 -0.11498,-0.06388,0.19163 -0.04547,-0.12903,0.97675 -0.30150,-0.13050,-0.58500 -0.11498,-0.06388,0.19163 -0.04547,-0.12903,0.97675 -0.28856,-0.10159,-0.59181 -0.05283,-0.01569,0.03301
06/24/24 13:39:23.838825 0.00000,0.00000,0.00000,0.00000,0.00000,0.00000,0.00000,0.00000,0.00000,0.00000,0.00000,0.00000 100 -0.10966,-0.06920,0.24380 -0.02533,-0.15424,0.98261 -0.30450,-0.12600,-0.58200 -0.10966,-0.06920,0.24380 -0.02533,-0.15424,0.98261 -0.28965,-0.10365,-0.59119 -0.02408,-0.00574,0.02836
06/24/24 13:39:23.882538 0.00000,0.00000,0.00000,0.00000,0.00000,0.00000,0.00000,0.00000,0.00000,0.00000,0.00000,0.00000 100 -0.02981,-0.03087,0.27148 -0.04700,-0.14996,0.97418 -0.30150,-0.12450,-0.58500 -0.02981,-0.03087,0.27148 -0.04700,-0.14996,0.97418 -0.29059,-0.10505,-0.59059 -0.03810,-0.01488,0.04251
06/24/24 13:39:23.926508 0.00000,0.00000,0.00000,0.00000,0.00000,0.00000,0.00000,0.00000,0.00000,0.00000,0.00000,0.00000 100 -0.03194,-0.07772,0.27787 -0.00372,-0.14368,0.98572 -0.29700,-0.11400,-0.58500 -0.03194,-0.07772,0.27787 -0.00372,-0.14368,0.98572 -0.29142,-0.10618,-0.59021 -0.01815,-0.00403,0.00390
06/24/24 13:39:23.970482 0.00000,0.00000,0.00000,0.00000,0.00000,0.00000,0.00000,0.00000,0.00000,0.00000,0.00000,0.00000 100 -0.00426,-0.05749,0.25338 0.00842,-0.14569,0.97540 -0.30600,-0.11700,-0.58650 -0.00426,-0.05749,0.25338 0.00842,-0.14569,0.97540 -0.29235,-0.10733,-0.58956 -0.00481,-0.01376,-0.00260
06/24/24 13:39:24.014174 0.00000,0.00000,0.00000,0.00000,0.00000,0.00000,0.00000,0.00000,0.00000,0.00000,0.00000,0.00000 100 0.03194,-0.20973,0.24060 -0.00897,-0.06268,0.93970 -0.30000,-0.11850,-0.58350 0.03194,-0.20973,0.24060 -0.00897,-0.06268,0.93970 -0.30067,-0.11415,-0.58436 -0.07669,-0.06160,-0.02393
06/24/24 13:39:24.058125 0.00000,0.00000,0.00000,0.00000,0.00000,0.00000,0.00000,0.00000,0.00000,0.00000,0.00000,0.00000 100 -0.41414,-0.07665,0.21186 0.01343,-0.18469,1.04254 -0.31350,-0.11850,-0.58350 -0.41414,-0.07665,0.21186 0.01343,-0.18469,1.04254 -0.30133,-0.11453,-0.58431 0.01546,0.05868,0.01169
06/24/24 13:39:24.101576 0.00000,0.00000,0.00000,0.00000,0.00000,0.00000,0.00000,0.00000,0.00000,0.00000,0.00000,0.00000 100 0.08091,-0.01597,0.21079 -0.02771,-0.11047,0.94586 -0.31050,-0.10800,-0.57750 0.08091,-0.01597,0.21079 -0.02771,-0.11047,0.94586 -0.30388,-0.11462,-0.58124 -0.04634,-0.04869,0.02216
06/24/24 13:39:24.145657 0.00000,0.00000,0.00000,0.00000,0.00000,0.00000,0.00000,0.00000,0.00000,0.00000,0.00000,0.00000 100 -0.00639,-0.00852,0.18311 0.01978,-0.13672,0.90723 -0.30450,-0.11550,-0.57900 -0.00639,-0.00852,0.18311 0.01978,-0.13672,0.90723 -0.30432,-0.11472,-0.58092 0.00429,-0.08235,-0.00695
06/24/24 13:39:24.189627 0.00000,0.00000,0.00000,0.00000,0.00000,0.00000,0.00000,0.00000,0.00000,0.00000,0.00000,0.00000 100 -0.02129,-0.01703,0.17673 0.03180,-0.15668,0.94678 -0.31200,-0.11400,-0.57450 -0.02129,-0.01703,0.17673 0.03180,-0.15668,0.94678 -0.30450,-0.11430,-0.58079 0.02018,-0.04009,-0.01071
06/24/24 13:39:24.233076 0.00000,0.00000,0.00000,0.00000,0.00000,0.00000,0.00000,0.00000,0.00000,0.00000,0.00000,0.00000 100 -0.17247,-0.05430,0.09688 0.01233,-0.16638,0.97729 -0.31050,-0.10650,-0.57750 -0.17247,-0.05430,0.09688 0.01233,-0.16638,0.97729 -0.30536,-0.11355,-0.58051 0.01139,-0.00867,0.00841
06/24/24 13:39:24.277166 0.00000,0.00000,0.00000,0.00000,0.00000,0.00000,0.00000,0.00000,0.00000,0.00000,0.00000,0.00000 100 -0.41840,0.02981,-0.01171 0.00763,-0.19171,0.98059 -0.32100,-0.09150,-0.57600 -0.41840,0.02981,-0.01171 0.00763,-0.19171,0.98059 -0.30603,-0.11248,-0.58052 0.01678,-0.00109,0.01661
06/24/24 13:39:24.320644 0.00000,0.00000,0.00000,0.00000,0.00000,0.00000,0.00000,0.00000,0.00000,0.00000,0.00000,0.00000 100 -0.44608,0.05323,-0.05962 0.06134,-0.07629,1.01440 -0.30900,-0.08550,-0.57750 -0.44608,0.05323,-0.05962 0.06134,-0.07629,1.01440 -0.30733,-0.10697,-0.57974 -0.07247,0.01185,-0.09752
06/24/24 13:39:24.364615 0.00000,0.00000,0.00000,0.00000,0.00000,0.00000,0.00000,0.00000,0.00000,0.00000,0.00000,0.00000 100 -0.30342,0.05323,-0.07346 0.01282,-0.24353,0.99432 -0.31050,-0.08700,-0.57750 -0.30342,0.05323,-0.07346 0.01282,-0.24353,0.99432 -0.30765,-0.10497,-0.57976 0.03105,0.02313,0.01999
06/24/24 13:39:24.408733 0.00000,0.00000,0.00000,0.00000,0.00000,0.00000,0.00000,0.00000,0.00000,0.00000,0.00000,0.00000 100 -0.31619,0.09262,0.04258 0.00677,-0.25580,0.99518 -0.30900,-0.08250,-0.58200 -0.31619,0.09262,0.04258 0.00677,-0.25580,0.99518 -0.30786,-0.10275,-0.57997 0.03818,0.02630,0.03331
06/24/24 13:39:24.452160 0.00000,0.00000,0.00000,0.00000,0.00000,0.00000,0.00000,0.00000,0.00000,0.00000,0.00000,0.00000 100 -0.15756,0.14372,0.07346 0.00208,-0.22839,0.96899 -0.30600,-0.06600,-0.58200 -0.15756,0.14372,0.07346 0.00208,-0.22839,0.96899 -0.30789,-0.09817,-0.57922 0.01886,-0.00496,0.02548
06/24/24 13:39:24.496128 0.00000,0.00000,0.00000,0.00000,0.00000,0.00000,0.00000,0.00000,0.00000,0.00000,0.00000,0.00000 100 -0.17779,0.21931,0.02981 0.00958,-0.24945,0.99475 -0.30750,-0.06600,-0.58050 -0.17779,0.21931,0.02981 0.00958,-0.24945,0.99475 -0.30780,-0.09595,-0.57929 0.03800,0.02459,0.02485
06/24/24 13:39:24.539761 0.00000,0.00000,0.00000,0.00000,0.00000,0.00000,0.00000,0.00000,0.00000,0.00000,0.00000,0.00000 100 -0.08623,0.06281,0.13947 -0.04883,-0.24609,0.94000 -0.29850,-0.06150,-0.58350 -0.08623,0.06281,0.13947 -0.04883,-0.24609,0.94000 -0.30741,-0.09335,-0.57944 0.01548,-0.03012,0.07509
06/24/24 13:39:24.583681 0.00000,0.00000,0.00000,0.00000,0.00000,0.00000,0.00000,0.00000,0.00000,0.00000,0.00000,0.00000 100 -0.14905,0.19057,0.12243 -0.00769,-0.26758,0.97644 -0.29700,-0.05550,-0.57900 -0.14905,0.19057,0.12243 -0.00769,-0.26758,0.97644 -0.30665,-0.09060,-0.57959 0.04983,0.01040,0.04127
06/24/24 13:39:24.627575 0.00000,0.00000,0.00000,0.00000,0.00000,0.00000,0.00000,0.00000,0.00000,0.00000,0.00000,0.00000 100 0.22144,0.04258,0.07665 -0.02917,-0.20361,0.96472 -0.29100,-0.06450,-0.58500 0.22144,0.04258,0.07665 -0.02917,-0.20361,0.96472 -0.30498,-0.08626,-0.58038 -0.00284,-0.01421,0.03482
06/24/24 13:39:24.671248 0.00000,0.00000,0.00000,0.00000,0.00000,0.00000,0.00000,0.00000,0.00000,0.00000,0.00000,0.00000 100 -0.06707,0.09369,-0.03194 -0.04510,-0.22760,0.93860 -0.28950,-0.07350,-0.58650 -0.06707,0.09369,-0.03194 -0.04510,-0.22760,0.93860 -0.30404,-0.08490,-0.58074 0.01673,-0.03563,0.06725
06/24/24 13:39:24.715248 0.00000,0.00000,0.00000,0.00000,0.00000,0.00000,0.00000,0.00000,0.00000,0.00000,0.00000,0.00000 100 0.16395,0.07239,-0.06920 -0.04865,-0.24945,0.95288 -0.29250,-0.06450,-0.59100 0.16395,0.07239,-0.06920 -0.04865,-0.24945,0.95288 -0.30308,-0.08240,-0.58132 0.03234,-0.01784,0.08296
06/24/24 13:39:24.758772 0.00000,0.00000,0.00000,0.00000,0.00000,0.00000,0.00000,0.00000,0.00000,0.00000,0.00000,0.00000 100 0.25125,0.08730,-0.10753 -0.04059,-0.21918,0.99298 -0.28650,-0.06600,-0.58950 0.25125,0.08730,-0.10753 -0.04059,-0.21918,0.99298 -0.30167,-0.08129,-0.58199 0.01095,0.01569,0.06293
06/24/24 13:39:24.802931 0.00000,0.00000,0.00000,0.00000,0.00000,0.00000,0.00000,0.00000,0.00000,0.00000,0.00000,0.00000 100 0.15118,0.07239,-0.14585 -0.06219,-0.21747,0.94360 -0.29400,-0.07050,-0.58950 0.15118,0.07239,-0.14585 -0.06219,-0.21747,0.94360 -0.30059,-0.08039,-0.58252 0.00785,-0.03357,0.08658
06/24/24 13:39:24.846930 0.00000,0.00000,0.00000,0.00000,0.00000,0.00000,0.00000,0.00000,0.00000,0.00000,0.00000,0.00000 100 0.16182,-0.04471,-0.30768 -0.03412,-0.18451,0.95953 -0.28500,-0.08550,-0.58950 0.16182,-0.04471,-0.30768 -0.03412,-0.18451,0.95953 -0.29967,-0.08013,-0.58292 -0.00601,-0.02352,0.04853
06/24/24 13:39:24.890463 0.00000,0.00000,0.00000,0.00000,0.00000,0.00000,0.00000,0.00000,0.00000,0.00000,0.00000,0.00000 100 0.37049,-0.10327,-0.19802 -0.03088,-0.21069,1.02600 -0.28950,-0.08100,-0.58650 0.37049,-0.10327,-0.19802 -0.03088,-0.21069,1.02600 -0.29813,-0.08112,-0.58415 0.01206,0.04577,0.06510
06/24/24 13:39:24.934624 0.00000,0.00000,0.00000,0.00000,0.00000,0.00000,0.00000,0.00000,0.00000,0.00000,0.00000,0.00000 100 0.10433,-0.05430,-0.09688 -0.02966,-0.17065,0.95038 -0.28350,-0.09300,-0.59100 0.10433,-0.05430,-0.09688 -0.02966,-0.17065,0.95038 -0.29757,-0.08213,-0.58472 -0.00792,-0.03541,0.05212
06/24/24 13:39:24.978113 0.00000,0.00000,0.00000,0.00000,0.00000,0.00000,0.00000,0.00000,0.00000,0.00000,0.00000,0.00000 100 0.02023,0.03620,-0.13521 -0.03748,-0.18073,0.98303 -0.28950,-0.10050,-0.58800 0.02023,0.03620,-0.13521 -0.03748,-0.18073,0.98303 -0.29689,-0.08343,-0.58494 -0.01253,-0.00169,0.06026
06/24/24 13:39:25.022091 0.00000,0.00000,0.00000,0.00000,0.00000,0.00000,0.00000,0.00000,0.00000,0.00000,0.00000,0.00000 100 -0.01278,0.00213,-0.11285 -0.02875,-0.17120,0.95819 -0.28800,-0.10050,-0.58650 -0.01278,0.00213,-0.11285 -0.02875,-0.17120,0.95819 -0.29626,-0.08460,-0.58538 -0.01387,-0.02746,0.04728
06/24/24 13:39:25.066242 0.00000,0.00000,0.00000,0.00000,0.00000,0.00000,0.00000,0.00000,0.00000,0.00000,0.00000,0.00000 100 0.07026,0.04578,-0.14053 -0.04065,-0.18573,0.98132 -0.29100,-0.09750,-0.58650 0.07026,0.04578,-0.14053 -0.04065,-0.18573,0.98132 -0.29559,-0.08590,-0.58568 -0.01501,-0.00243,0.06143
06/24/24 13:39:25.109768 0.00000,0.00000,0.00000,0.00000,0.00000,0.00000,0.00000,0.00000,0.00000,0.00000,0.00000,0.00000 100 -0.04578,-0.02342,-0.04365 -0.03015,-0.16461,0.98877 -0.29400,-0.10050,-0.58350 -0.04578,-0.02342,-0.04365 -0.03015,-0.16461,0.98877 -0.29536,-0.08738,-0.58574 -0.02934,0.00166,0.03868
06/24/24 13:39:25.153767 0.00000,0.00000,0.00000,0.00000,0.00000,0.00000,0.00000,0.00000,0.00000,0.00000,0.00000,0.00000 100 -0.18418,0.03300,-0.01597 -0.02307,-0.16479,0.90875 -0.28950,-0.10650,-0.58800 -0.18418,0.03300,-0.01597 -0.02307,-0.16479,0.90875 -0.29491,-0.08851,-0.58592 -0.01642,-0.07701,0.03658
06/24/24 13:39:25.197481 0.00000,0.00000,0.00000,0.00000,0.00000,0.00000,0.00000,0.00000,0.00000,0.00000,0.00000,0.00000 100 -0.01065,0.00426,0.01171 -0.02783,-0.18097,0.96692 -0.28500,-0.09900,-0.58200 -0.01065,0.00426,0.01171 -0.02783,-0.18097,0.96692 -0.29433,-0.08913,-0.58612 -0.01703,-0.01699,0.04314
06/24/24 13:39:25.241388 0.00000,0.00000,0.00000,0.00000,0.00000,0.00000,0.00000,0.00000,0.00000,0.00000,0.00000,0.00000 100 -0.05962,-0.00532,0.02129 -0.03033,-0.18158,0.96088 -0.29100,-0.09900,-0.58800 -0.05962,-0.00532,0.02129 -0.03033,-0.18158,0.96088 -0.29402,-0.09007,-0.58609 -0.01838,-0.02284,0.04457
06/24/24 13:39:25.285339 0.00000,0.00000,0.00000,0.00000,0.00000,0.00000,0.00000,0.00000,0.00000,0.00000,0.00000,0.00000 100 -0.11711,-0.00852,-0.02342 -0.01959,-0.20587,0.98572 -0.28950,-0.10050,-0.58500 -0.11711,-0.00852,-0.02342 -0.01959,-0.20587,0.98572 -0.29369,-0.09094,-0.58609 0.00030,0.00615,0.04540
06/24/24 13:39:25.329008 0.00000,0.00000,0.00000,0.00000,0.00000,0.00000,0.00000,0.00000,0.00000,0.00000,0.00000,0.00000 100 -0.03194,0.02236,-0.02874 -0.02563,-0.17938,0.95801 -0.29400,-0.09600,-0.58200 -0.03194,0.02236,-0.02874 -0.02563,-0.17938,0.95801 -0.29337,-0.09115,-0.58616 -0.01892,-0.02593,0.03796
06/24/24 13:39:25.372961 0.00000,0.00000,0.00000,0.00000,0.00000,0.00000,0.00000,0.00000,0.00000,0.00000,0.00000,0.00000 100 -0.05962,0.00106,0.00000 -0.02814,-0.20197,0.96997 -0.29250,-0.09450,-0.59100 -0.05962,0.00106,0.00000 -0.02814,-0.20197,0.96997 -0.29331,-0.09148,-0.58637 -0.00515,-0.01012,0.05037
06/24/24 13:39:25.416449 0.00000,0.00000,0.00000,0.00000,0.00000,0.00000,0.00000,0.00000,0.00000,0.00000,0.00000,0.00000 100 -0.01810,-0.02023,0.00000 -0.02435,-0.19666,0.96661 -0.29100,-0.09450,-0.58800 -0.01810,-0.02023,0.00000 -0.02435,-0.19666,0.96661 -0.29316,-0.09186,-0.58658 -0.00653,-0.01431,0.04448
06/24/24 13:39:25.460585 0.00000,0.00000,0.00000,0.00000,0.00000,0.00000,0.00000,0.00000,0.00000,0.00000,0.00000,0.00000 100 0.02342,0.02023,-0.00958 -0.02655,-0.18347,0.96802 -0.29250,-0.09600,-0.58800 0.02342,0.02023,-0.00958 -0.02655,-0.18347,0.96802 -0.29290,-0.09195,-0.58661 -0.01719,-0.01532,0.03907
06/24/24 13:39:25.504501 0.00000,0.00000,0.00000,0.00000,0.00000,0.00000,0.00000,0.00000,0.00000,0.00000,0.00000,0.00000 100 -0.06494,0.00213,-0.05642 -0.01978,-0.17834,1.00830 -0.29100,-0.09000,-0.58650 -0.06494,0.00213,-0.05642 -0.01978,-0.17834,1.00830 -0.29281,-0.09198,-0.58678 -0.02472,0.02349,0.02688
06/24/24 13:39:25.547936 0.00000,0.00000,0.00000,0.00000,0.00000,0.00000,0.00000,0.00000,0.00000,0.00000,0.00000,0.00000 100 -0.05004,-0.02023,-0.01065 -0.01587,-0.19360,0.97119 -0.28650,-0.09150,-0.59550 -0.05004,-0.02023,-0.01065 -0.01587,-0.19360,0.97119 -0.29229,-0.09206,-0.58699 -0.00388,-0.01024,0.03622
06/24/24 13:39:25.592081 0.00000,0.00000,0.00000,0.00000,0.00000,0.00000,0.00000,0.00000,0.00000,0.00000,0.00000,0.00000 100 -0.00319,0.01810,-0.00958 -0.03229,-0.19427,0.97656 -0.28950,-0.08850,-0.58200 -0.00319,0.01810,-0.00958 -0.03229,-0.19427,0.97656 -0.29203,-0.09228,-0.58710 -0.01370,-0.00511,0.04968
06/24/24 13:39:25.636080 0.00000,0.00000,0.00000,0.00000,0.00000,0.00000,0.00000,0.00000,0.00000,0.00000,0.00000,0.00000 100 -0.09262,-0.00852,-0.02449 -0.02032,-0.21155,0.95367 -0.28050,-0.09600,-0.58800 -0.09262,-0.00852,-0.02449 -0.02032,-0.21155,0.95367 -0.29187,-0.09219,-0.58719 0.01010,-0.02437,0.05192
06/24/24 13:39:25.679586 0.00000,0.00000,0.00000,0.00000,0.00000,0.00000,0.00000,0.00000,0.00000,0.00000,0.00000,0.00000 100 -0.03087,0.01065,0.00745 -0.03882,-0.19269,0.98322 -0.29250,-0.09000,-0.58650 -0.03087,0.01065,0.00745 -0.03882,-0.19269,0.98322 -0.29175,-0.09205,-0.58726 -0.02143,0.00102,0.05343
06/24/24 13:39:25.723799 0.00000,0.00000,0.00000,0.00000,0.00000,0.00000,0.00000,0.00000,0.00000,0.00000,0.00000,0.00000 100 -0.02981,0.01703,-0.03407 -0.02838,-0.21735,0.96869 -0.28350,-0.09000,-0.58050 -0.02981,0.01703,-0.03407 -0.02838,-0.21735,0.96869 -0.29161,-0.09195,-0.58702 0.00673,-0.00863,0.05946
06/24/24 13:39:25.767311 0.00000,0.00000,0.00000,0.00000,0.00000,0.00000,0.00000,0.00000,0.00000,0.00000,0.00000,0.00000 100 -0.00532,-0.00106,-0.04258 -0.02698,-0.20007,0.96527 -0.29400,-0.09600,-0.58800 -0.00532,-0.00106,-0.04258 -0.02698,-0.20007,0.96527 -0.29158,-0.09203,-0.58701 -0.00525,-0.01511,0.04968
06/24/24 13:39:25.811314 0.00000,0.00000,0.00000,0.00000,0.00000,0.00000,0.00000,0.00000,0.00000,0.00000,0.00000,0.00000 100 -0.05536,0.01384,-0.11391 -0.02618,-0.20239,0.94952 -0.28800,-0.10200,-0.58650 -0.05536,0.01384,-0.11391 -0.02618,-0.20239,0.94952 -0.29142,-0.09200,-0.58718 -0.00091,-0.03017,0.05165
06/24/24 13:39:25.855515 0.00000,0.00000,0.00000,0.00000,0.00000,0.00000,0.00000,0.00000,0.00000,0.00000,0.00000,0.00000 100 -0.11498,0.03087,-0.06707 -0.02606,-0.20673,1.00598 -0.28950,-0.08700,-0.59250 -0.11498,0.03087,-0.06707 -0.02606,-0.20673,1.00598 -0.29127,-0.09204,-0.58737 -0.00981,0.02622,0.04669
06/24/24 13:39:25.898953 0.00000,0.00000,0.00000,0.00000,0.00000,0.00000,0.00000,0.00000,0.00000,0.00000,0.00000,0.00000 100 -0.21079,0.02342,-0.06388 -0.02582,-0.21490,0.93018 -0.29250,-0.08700,-0.58800 -0.21079,0.02342,-0.06388 -0.02582,-0.21490,0.93018 -0.29105,-0.09178,-0.58751 0.00670,-0.04658,0.05502
06/24/24 13:39:25.942919 0.00000,0.00000,0.00000,0.00000,0.00000,0.00000,0.00000,0.00000,0.00000,0.00000,0.00000,0.00000 100 -0.38113,0.03513,-0.01171 -0.03052,-0.22296,0.99084 -0.28350,-0.08850,-0.58200 -0.38113,0.03513,-0.01171 -0.03052,-0.22296,0.99084 -0.29066,-0.09167,-0.58743 -0.00844,0.01474,0.05152
06/24/24 13:39:25.986624 0.00000,0.00000,0.00000,0.00000,0.00000,0.00000,0.00000,0.00000,0.00000,0.00000,0.00000,0.00000 100 -0.13840,0.01703,-0.06601 -0.02722,-0.23621,0.92011 -0.28500,-0.08250,-0.58800 -0.13840,0.01703,-0.06601 -0.02722,-0.23621,0.92011 -0.29020,-0.09072,-0.58749 0.01326,-0.05168,0.06033
06/24/24 13:39:26.030579 0.00000,0.00000,0.00000,0.00000,0.00000,0.00000,0.00000,0.00000,0.00000,0.00000,0.00000,0.00000 100 0.05110,0.01703,-0.05536 -0.04443,-0.24847,0.98022 -0.28350,-0.07800,-0.58950 0.05110,0.01703,-0.05536 -0.04443,-0.24847,0.98022 -0.28965,-0.08984,-0.58746 0.00294,0.00934,0.07604
06/24/24 13:39:26.074474 0.00000,0.00000,0.00000,0.00000,0.00000,0.00000,0.00000,0.00000,0.00000,0.00000,0.00000,0.00000 100 0.02555,0.05855,-0.06281 -0.03595,-0.22839,0.94415 -0.28650,-0.08250,-0.58950 0.02555,0.05855,-0.06281 -0.03595,-0.22839,0.94415 -0.28939,-0.08909,-0.58746 0.00220,-0.02999,0.06283
06/24/24 13:39:26.118080 0.00000,0.00000,0.00000,0.00000,0.00000,0.00000,0.00000,0.00000,0.00000,0.00000,0.00000,0.00000 100 0.00213,0.00213,0.02555 -0.02411,-0.23444,0.97473 -0.28500,-0.08400,-0.58800 0.00213,0.00213,0.02555 -0.02411,-0.23444,0.97473 -0.28920,-0.08855,-0.58777 0.00945,0.00128,0.05472
06/24/24 13:39:26.162004 0.00000,0.00000,0.00000,0.00000,0.00000,0.00000,0.00000,0.00000,0.00000,0.00000,0.00000,0.00000 100 -0.00319,0.05217,0.01065 -0.02496,-0.24670,0.96082 -0.28500,-0.07800,-0.59400 -0.00319,0.05217,0.01065 -0.02496,-0.24670,0.96082 -0.28867,-0.08796,-0.58793 0.02187,-0.00999,0.06364
06/24/24 13:39:26.205462 0.00000,0.00000,0.00000,0.00000,0.00000,0.00000,0.00000,0.00000,0.00000,0.00000,0.00000,0.00000 100 -0.03939,-0.01384,0.00852 -0.04486,-0.23828,0.95636 -0.28350,-0.08250,-0.58800 -0.03939,-0.01384,0.00852 -0.04486,-0.23828,0.95636 -0.28850,-0.08766,-0.58799 0.00454,-0.01628,0.07536
06/24/24 13:39:26.249558 0.00000,0.00000,0.00000,0.00000,0.00000,0.00000,0.00000,0.00000,0.00000,0.00000,0.00000,0.00000 100 0.01384,0.02449,0.01384 -0.03339,-0.24188,0.95435 -0.28650,-0.08100,-0.59100 0.01384,0.02449,0.01384 -0.03339,-0.24188,0.95435 -0.28787,-0.08708,-0.58851 0.01442,-0.01740,0.06849
06/24/24 13:39:26.293589 0.00000,0.00000,0.00000,0.00000,0.00000,0.00000,0.00000,0.00000,0.00000,0.00000,0.00000,0.00000 100 -0.00106,-0.00106,-0.00319 -0.03210,-0.24933,0.96912 -0.28200,-0.07650,-0.58800 -0.00106,-0.00106,-0.00319 -0.03210,-0.24933,0.96912 -0.28766,-0.08631,-0.58855 0.01778,-0.00141,0.06983
06/24/24 13:39:26.337091 0.00000,0.00000,0.00000,0.00000,0.00000,0.00000,0.00000,0.00000,0.00000,0.00000,0.00000,0.00000 100 0.00319,0.00958,0.04791 -0.03497,-0.23358,0.95050 -0.28950,-0.08100,-0.59400 0.00319,0.00958,0.04791 -0.03497,-0.23358,0.95050 -0.28746,-0.08578,-0.58866 0.00678,-0.02279,0.06514
06/24/24 13:39:26.381290 0.00000,0.00000,0.00000,0.00000,0.00000,0.00000,0.00000,0.00000,0.00000,0.00000,0.00000,0.00000 100 -0.00852,-0.01278,0.00639 -0.03741,-0.26160,0.96075 -0.28800,-0.07950,-0.58800 -0.00852,-0.01278,0.00639 -0.03741,-0.26160,0.96075 -0.28720,-0.08542,-0.58864 0.02450,-0.00720,0.08143
06/24/24 13:39:26.424835 0.00000,0.00000,0.00000,0.00000,0.00000,0.00000,0.00000,0.00000,0.00000,0.00000,0.00000,0.00000 100 -0.00213,0.01597,0.03513 -0.03516,-0.23120,0.96991 -0.28200,-0.08400,-0.59100 -0.00213,0.01597,0.03513 -0.03516,-0.23120,0.96991 -0.28718,-0.08504,-0.58887 0.00068,-0.00418,0.06124
06/24/24 13:39:26.468794 0.00000,0.00000,0.00000,0.00000,0.00000,0.00000,0.00000,0.00000,0.00000,0.00000,0.00000,0.00000 100 -0.00958,0.01703,0.01597 -0.03967,-0.24146,0.94165 -0.28950,-0.07500,-0.58800 -0.00958,0.01703,0.01597 -0.03967,-0.24146,0.94165 -0.28702,-0.08472,-0.58883 0.01052,-0.02985,0.07259
06/24/24 13:39:26.512909 0.00000,0.00000,0.00000,0.00000,0.00000,0.00000,0.00000,0.00000,0.00000,0.00000,0.00000,0.00000 100 -0.05217,0.00958,0.00426 -0.03479,-0.24780,0.96289 -0.28350,-0.07650,-0.58650 -0.05217,0.00958,0.00426 -0.03479,-0.24780,0.96289 -0.28682,-0.08431,-0.58878 0.01380,-0.00760,0.06882
06/24/24 13:39:26.556416 0.00000,0.00000,0.00000,0.00000,0.00000,0.00000,0.00000,0.00000,0.00000,0.00000,0.00000,0.00000 100 -0.03300,0.00958,-0.02662 -0.02771,-0.25061,0.95483 -0.28200,-0.07800,-0.59250 -0.03300,0.00958,-0.02662 -0.02771,-0.25061,0.95483 -0.28664,-0.08364,-0.58882 0.02104,-0.01479,0.06474
06/24/24 13:39:26.600346 0.00000,0.00000,0.00000,0.00000,0.00000,0.00000,0.00000,0.00000,0.00000,0.00000,0.00000,0.00000 100 -0.00106,0.00852,-0.02449 -0.04095,-0.25592,0.95178 -0.28200,-0.07650,-0.58800 -0.00106,0.00852,-0.02449 -0.04095,-0.25592,0.95178 -0.28645,-0.08314,-0.58901 0.01744,-0.01684,0.07842
06/24/24 13:39:26.643972 0.00000,0.00000,0.00000,0.00000,0.00000,0.00000,0.00000,0.00000,0.00000,0.00000,0.00000,0.00000 100 0.00000,-0.01065,0.07559 -0.03351,-0.26093,0.96271 -0.28500,-0.07050,-0.59100 0.00000,-0.01065,0.07559 -0.03351,-0.26093,0.96271 -0.28624,-0.08279,-0.58912 0.02325,-0.00496,0.07320
06/24/24 13:39:26.687885 0.00000,0.00000,0.00000,0.00000,0.00000,0.00000,0.00000,0.00000,0.00000,0.00000,0.00000,0.00000 100 -0.02129,0.02023,-0.00852 -0.03278,-0.22583,0.96118 -0.28350,-0.07650,-0.58950 -0.02129,0.02023,-0.00852 -0.03278,-0.22583,0.96118 -0.28605,-0.08225,-0.58913 -0.00380,-0.01349,0.05221
06/24/24 13:39:26.731844 0.00000,0.00000,0.00000,0.00000,0.00000,0.00000,0.00000,0.00000,0.00000,0.00000,0.00000,0.00000 100 -0.10646,0.03194,0.02768 -0.03369,-0.24707,0.93372 -0.28950,-0.07650,-0.58050 -0.10646,0.03194,0.02768 -0.03369,-0.24707,0.93372 -0.28641,-0.08172,-0.58878 0.01504,-0.03591,0.06567
06/24/24 13:39:26.775492 0.00000,0.00000,0.00000,0.00000,0.00000,0.00000,0.00000,0.00000,0.00000,0.00000,0.00000,0.00000 100 0.00639,0.03726,-0.02129 -0.02216,-0.26788,0.97797 -0.27900,-0.06900,-0.59100 0.00639,0.03726,-0.02129 -0.02216,-0.26788,0.97797 -0.28602,-0.08112,-0.58911 0.02911,0.01192,0.06194
06/24/24 13:39:26.819458 0.00000,0.00000,0.00000,0.00000,0.00000,0.00000,0.00000,0.00000,0.00000,0.00000,0.00000,0.00000 100 0.03833,0.05323,-0.08091 -0.03674,-0.23907,0.92480 -0.27750,-0.07200,-0.58800 0.03833,0.05323,-0.08091 -0.03674,-0.23907,0.92480 -0.28541,-0.08058,-0.58895 0.00845,-0.04623,0.06338
06/24/24 13:39:26.862919 0.00000,0.00000,0.00000,0.00000,0.00000,0.00000,0.00000,0.00000,0.00000,0.00000,0.00000,0.00000 100 -0.50995,0.04471,0.00426 -0.03497,-0.49762,0.97931 -0.28350,-0.07500,-0.59100 -0.50995,0.04471,0.00426 -0.03497,-0.49762,0.97931 -0.28361,-0.07630,-0.59164 0.19421,0.06389,0.19577
06/24/24 13:39:26.907076 0.00000,0.00000,0.00000,0.00000,0.00000,0.00000,0.00000,0.00000,0.00000,0.00000,0.00000,0.00000 100 -0.22144,-0.01384,-0.03939 -0.02496,-0.34515,0.93793 -0.27600,-0.07050,-0.58950 -0.22144,-0.01384,-0.03939 -0.02496,-0.34515,0.93793 -0.28066,-0.07286,-0.58977 0.07697,-0.00814,0.09870
06/24/24 13:39:26.951006 0.00000,0.00000,0.00000,0.00000,0.00000,0.00000,0.00000,0.00000,0.00000,0.00000,0.00000,0.00000 100 0.29703,0.01171,-0.07772 -0.05469,-0.26959,0.93994 -0.28050,-0.06150,-0.58800 0.29703,0.01171,-0.07772 -0.05469,-0.26959,0.93994 -0.28082,-0.07076,-0.58976 0.00438,-0.02404,0.08146
06/24/24 13:39:26.994419 0.00000,0.00000,0.00000,0.00000,0.00000,0.00000,0.00000,0.00000,0.00000,0.00000,0.00000,0.00000 100 0.10007,-0.02129,-0.11179 -0.04120,-0.23468,0.98730 -0.27450,-0.06900,-0.59100 0.10007,-0.02129,-0.11179 -0.04120,-0.23468,0.98730 -0.28036,-0.07074,-0.58968 -0.01808,0.01422,0.05074
06/24/24 13:39:27.038507 0.00000,0.00000,0.00000,0.00000,0.00000,0.00000,0.00000,0.00000,0.00000,0.00000,0.00000,0.00000 100 0.08517,-0.02023,0.01597 -0.06738,-0.28278,0.94611 -0.27450,-0.07200,-0.59250 0.08517,-0.02023,0.01597 -0.06738,-0.28278,0.94611 -0.28010,-0.07073,-0.58987 0.00948,-0.01580,0.10435
06/24/24 13:39:27.081961 0.00000,0.00000,0.00000,0.00000,0.00000,0.00000,0.00000,0.00000,0.00000,0.00000,0.00000,0.00000 100 0.11498,-0.05430,-0.03833 -0.00726,-0.25476,0.95477 -0.28200,-0.07200,-0.58800 0.11498,-0.05430,-0.03833 -0.00726,-0.25476,0.95477 -0.27967,-0.07082,-0.59015 0.02445,-0.01296,0.04113
06/24/24 13:39:27.125860 0.00000,0.00000,0.00000,0.00000,0.00000,0.00000,0.00000,0.00000,0.00000,0.00000,0.00000,0.00000 100 -0.01065,-0.06175,0.09795 -0.10919,-0.23615,1.09833 -0.27750,-0.07350,-0.58650 -0.01065,-0.06175,0.09795 -0.10919,-0.23615,1.09833 -0.27944,-0.07124,-0.58978 -0.07590,0.12200,0.09676
06/24/24 13:39:27.169922 0.00000,0.00000,0.00000,0.00000,0.00000,0.00000,0.00000,0.00000,0.00000,0.00000,0.00000,0.00000 100 0.08943,-0.01490,-0.09049 -0.05389,-0.23645,1.01038 -0.28500,-0.08100,-0.59550 0.08943,-0.01490,-0.09049 -0.05389,-0.23645,1.01038 -0.28070,-0.07173,-0.58973 -0.02427,0.03683,0.06379
06/24/24 13:39:27.213354 0.00000,0.00000,0.00000,0.00000,0.00000,0.00000,0.00000,0.00000,0.00000,0.00000,0.00000,0.00000 100 0.16182,-0.00958,0.05962 -0.02881,-0.24341,0.92932 -0.28050,-0.07650,-0.58650 0.16182,-0.00958,0.05962 -0.02881,-0.24341,0.92932 -0.28081,-0.07210,-0.58983 0.01266,-0.04069,0.05721
06/24/24 13:39:27.257280 0.00000,0.00000,0.00000,0.00000,0.00000,0.00000,0.00000,0.00000,0.00000,0.00000,0.00000,0.00000 100 0.10859,-0.08198,-0.06175 -0.11584,-0.20306,0.96826 -0.28200,-0.08100,-0.59700 0.10859,-0.08198,-0.06175 -0.11584,-0.20306,0.96826 -0.28129,-0.07508,-0.59187 -0.07530,-0.01178,0.09970
06/24/24 13:39:27.300917 0.00000,0.00000,0.00000,0.00000,0.00000,0.00000,0.00000,0.00000,0.00000,0.00000,0.00000,0.00000 100 0.28745,-0.11179,-0.19270 0.01392,-0.28748,0.98358 -0.28350,-0.09000,-0.58350 0.28745,-0.11179,-0.19270 0.01392,-0.28748,0.98358 -0.28210,-0.08162,-0.59041 0.06953,0.02122,0.05051
06/24/24 13:39:27.344849 0.00000,0.00000,0.00000,0.00000,0.00000,0.00000,0.00000,0.00000,0.00000,0.00000,0.00000,0.00000 100 0.25231,0.08623,-0.12030 0.01331,-0.17676,0.94305 -0.28650,-0.09750,-0.58350 0.25231,0.08623,-0.12030 0.01331,-0.17676,0.94305 -0.28265,-0.08275,-0.58964 -0.00419,-0.04045,-0.00386
06/24/24 13:39:27.388786 0.00000,0.00000,0.00000,0.00000,0.00000,0.00000,0.00000,0.00000,0.00000,0.00000,0.00000,0.00000 100 0.22144,0.00106,-0.22570 -0.03058,-0.19537,0.97809 -0.28950,-0.10050,-0.58350 0.22144,0.00106,-0.22570 -0.03058,-0.19537,0.97809 -0.28290,-0.08395,-0.58954 -0.01909,-0.00309,0.03973
06/24/24 13:39:27.432384 0.00000,0.00000,0.00000,0.00000,0.00000,0.00000,0.00000,0.00000,0.00000,0.00000,0.00000,0.00000 100 0.05855,-0.02555,-0.25338 -0.00171,-0.19629,1.00201 -0.28500,-0.11250,-0.58650 0.05855,-0.02555,-0.25338 -0.00171,-0.19629,1.00201 -0.28308,-0.08587,-0.58925 -0.00605,0.02089,0.01738
06/24/24 13:39:27.476274 0.00000,0.00000,0.00000,0.00000,0.00000,0.00000,0.00000,0.00000,0.00000,0.00000,0.00000,0.00000 100 0.05004,0.01490,-0.24167 -0.05115,-0.19916,0.88782 -0.27900,-0.11100,-0.58950 0.05004,0.01490,-0.24167 -0.05115,-0.19916,0.88782 -0.28311,-0.08795,-0.58895 -0.01918,-0.09164,0.07078
06/24/24 13:39:27.519749 0.00000,0.00000,0.00000,0.00000,0.00000,0.00000,0.00000,0.00000,0.00000,0.00000,0.00000,0.00000 100 -0.05642,0.04152,-0.29809 0.00562,-0.19171,0.95239 -0.27900,-0.11700,-0.59100 -0.05642,0.04152,-0.29809 0.00562,-0.19171,0.95239 -0.28294,-0.08994,-0.58902 -0.00465,-0.02858,0.01266
06/24/24 13:39:27.563881 0.00000,0.00000,0.00000,0.00000,0.00000,0.00000,0.00000,0.00000,0.00000,0.00000,0.00000,0.00000 100 -0.13414,0.05110,-0.25444 -0.01929,-0.20880,0.98706 -0.28200,-0.11250,-0.58800 -0.13414,0.05110,-0.25444 -0.01929,-0.20880,0.98706 -0.28324,-0.09176,-0.58889 -0.02069,0.00829,0.03439
06/24/24 13:39:27.607849 0.00000,0.00000,0.00000,0.00000,0.00000,0.00000,0.00000,0.00000,0.00000,0.00000,0.00000,0.00000 100 -0.08304,0.01810,-0.22889 -0.00684,-0.21246,0.95160 -0.27600,-0.11100,-0.59400 -0.08304,0.01810,-0.22889 -0.00684,-0.21246,0.95160 -0.28293,-0.09352,-0.58892 -0.00994,-0.02542,0.02873
06/24/24 13:39:27.651325 0.00000,0.00000,0.00000,0.00000,0.00000,0.00000,0.00000,0.00000,0.00000,0.00000,0.00000,0.00000 100 -0.22889,-0.00852,-0.03513 0.00330,-0.20685,0.96527 -0.28200,-0.11400,-0.58950 -0.22889,-0.00852,-0.03513 0.00330,-0.20685,0.96527 -0.28268,-0.09467,-0.58888 -0.01699,-0.01302,0.01135
06/24/24 13:39:27.695437 0.00000,0.00000,0.00000,0.00000,0.00000,0.00000,0.00000,0.00000,0.00000,0.00000,0.00000,0.00000 100 -0.29383,0.11604,-0.14692 -0.01636,-0.21503,0.95673 -0.28050,-0.10950,-0.58950 -0.29383,0.11604,-0.14692 -0.01636,-0.21503,0.95673 -0.28270,-0.09579,-0.58899 -0.02711,-0.01999,0.02593
