# Data format: "%int(Month)/%int(Day)/%int(Year) %int(Hours):%int(Minutes):%float(Seconds) %float(StepIndex),%float(StepHeading),%float(StepDistanceX),%float(StepDistanceY),%float(StepDistance),%float(StepTime),%float(StepAmplitude),%float(StepDutyCucle),%float(StepRatio),%float(Altitude),%float(Confidence),%float(AltitudeOffset) %int(BatteryLevel) %float(RawGyroX),%float(RawGyroY),%float(RawGyroZ) %float(RawAccelX),%float(RawAccelY),%float(RawAccelZ) %float(RawCompassX),%float(RawCompassY),%float(RawCompassZ) %float(CorrectedGyroX),%float(CorrectedGyroY),%float(CorrectedGyroZ) %float(CorrectedAccelX),%float(CorrectedAccelY),%float(CorrectedAccelZ) %float(CorrectedCompassX),%float(CorrectedCompassY),%float(CorrectedCompassZ) %float(LinearAccelX),%float(LinearAccelY),%float(LinearAccelZ)"
06/17/24 13:21:05.346092 0.00000,0.00000,0.00000,0.00000,0.00000,0.00000,0.00000,0.00000,0.00000,0.00000,0.00000,0.00000 94 -0.00106,-0.81443,1.64803 -0.17780,0.62915,-0.28595 0.06000,-0.37350,0.16350 -0.00106,-0.81443,1.64803 -0.17780,0.62915,-0.28595 0.01235,-0.38009,0.17121 -0.21705,-0.39156,-0.30316
06/17/24 13:21:05.387867 0.00000,0.00000,0.00000,0.00000,0.00000,0.00000,0.00000,0.00000,0.00000,0.00000,0.00000,0.00000 94 -0.96987,-0.52060,1.27541 -0.21906,0.76788,-0.48450 0.04050,-0.38700,0.15750 -0.96987,-0.52060,1.27541 -0.21906,0.76788,-0.48450 0.04124,-0.38563,0.15802 -0.18953,-0.42691,-0.71275
06/17/24 13:21:05.431261 0.00000,0.00000,0.00000,0.00000,0.00000,0.00000,0.00000,0.00000,0.00000,0.00000,0.00000,0.00000 94 -0.97839,-0.14159,0.96667 0.03918,0.86304,-0.39484 0.03900,-0.40650,0.14550 -0.97839,-0.14159,0.96667 0.03918,0.86304,-0.39484 0.04007,-0.40507,0.14601 -0.09433,-0.13056,-0.37074
06/17/24 13:21:05.475151 0.00000,0.00000,0.00000,0.00000,0.00000,0.00000,0.00000,0.00000,0.00000,0.00000,0.00000,0.00000 94 -1.12424,-1.08059,0.34707 0.08057,0.89954,-0.26685 0.02400,-0.42300,0.12750 -1.12424,-1.08059,0.34707 0.08057,0.89954,-0.26685 0.02363,-0.42224,0.12843 -0.13246,-0.10448,-0.25955
06/17/24 13:21:05.518346 0.00000,0.00000,0.00000,0.00000,0.00000,0.00000,0.00000,0.00000,0.00000,0.00000,0.00000,0.00000 94 -1.13914,-0.69626,0.52486 -0.02142,1.01599,-0.14545 0.02850,-0.43200,0.10500 -1.13914,-0.69626,0.52486 -0.02142,1.01599,-0.14545 0.02799,-0.43113,0.10551 -0.21882,-0.04429,-0.30429
06/17/24 13:21:05.562029 0.00000,0.00000,0.00000,0.00000,0.00000,0.00000,0.00000,0.00000,0.00000,0.00000,0.00000,0.00000 94 -0.31193,-0.66006,0.64090 0.10474,1.04871,-0.10309 0.01650,-0.45300,0.09300 -0.31193,-0.66006,0.64090 0.10474,1.04871,-0.10309 0.01738,-0.45184,0.09241 -0.21075,0.01688,-0.20720
06/17/24 13:21:05.608158 0.00000,0.00000,0.00000,0.00000,0.00000,0.00000,0.00000,0.00000,0.00000,0.00000,0.00000,0.00000 94 -0.22783,-1.66187,1.57777 0.17761,1.02216,-0.14648 0.02100,-0.45600,0.08400 -0.22783,-1.66187,1.57777 0.17761,1.02216,-0.14648 0.02338,-0.45433,0.08615 -0.15288,0.01996,-0.18468
06/17/24 13:21:05.651439 0.00000,0.00000,0.00000,0.00000,0.00000,0.00000,0.00000,0.00000,0.00000,0.00000,0.00000,0.00000 94 -0.94538,-2.30490,2.80314 0.21716,1.04205,-0.09027 0.00300,-0.46800,0.07200 -0.94538,-2.30490,2.80314 0.21716,1.04205,-0.09027 0.00357,-0.46694,0.07400 -0.20443,0.02243,-0.23246
06/17/24 13:21:05.695190 0.00000,0.00000,0.00000,0.00000,0.00000,0.00000,0.00000,0.00000,0.00000,0.00000,0.00000,0.00000 94 -0.48973,-1.94825,1.84179 0.20056,1.19110,-0.03461 -0.02850,-0.48150,0.05100 -0.48973,-1.94825,1.84179 0.20056,1.19110,-0.03461 -0.02703,-0.48146,0.05100 -0.27693,0.10224,-0.41052
06/17/24 13:21:05.738659 0.00000,0.00000,0.00000,0.00000,0.00000,0.00000,0.00000,0.00000,0.00000,0.00000,0.00000,0.00000 94 -0.92515,-1.26477,-1.22538 0.33759,1.00067,-0.26288 -0.03000,-0.49650,0.04200 -0.92515,-1.26477,-1.22538 0.33759,1.00067,-0.26288 -0.03267,-0.49370,0.04165 -0.01125,0.06897,-0.20393
06/17/24 13:21:05.782372 0.00000,0.00000,0.00000,0.00000,0.00000,0.00000,0.00000,0.00000,0.00000,0.00000,0.00000,0.00000 94 -1.49260,-0.09795,-0.92941 0.13129,0.52277,0.15906 -0.01950,-0.49800,0.02400 -1.49260,-0.09795,-0.92941 0.13129,0.52277,0.15906 -0.01934,-0.49729,0.02443 -0.26294,-0.52106,-0.13155
06/17/24 13:21:05.826109 0.00000,0.00000,0.00000,0.00000,0.00000,0.00000,0.00000,0.00000,0.00000,0.00000,0.00000,0.00000 94 1.79069,-1.42978,2.68710 0.29059,0.89392,-0.21967 -0.01800,-0.49650,0.01350 1.79069,-1.42978,2.68710 0.29059,0.89392,-0.21967 -0.01760,-0.49646,0.01355 -0.01268,-0.04990,-0.17013
06/17/24 13:21:05.869572 0.00000,0.00000,0.00000,0.00000,0.00000,0.00000,0.00000,0.00000,0.00000,0.00000,0.00000,0.00000 94 -0.65048,-1.85031,0.87086 0.46594,0.88000,-0.08508 -0.03900,-0.49350,0.03150 -0.65048,-1.85031,0.87086 0.46594,0.88000,-0.08508 -0.03703,-0.49507,0.03268 -0.18099,-0.01987,-0.07304
06/17/24 13:21:05.913335 0.00000,0.00000,0.00000,0.00000,0.00000,0.00000,0.00000,0.00000,0.00000,0.00000,0.00000,0.00000 94 -0.43862,-2.69881,0.85276 0.39520,0.83490,-0.06744 -0.04050,-0.50550,0.01650 -0.43862,-2.69881,0.85276 0.39520,0.83490,-0.06744 -0.04245,-0.50497,0.01835 -0.16366,-0.09792,-0.13138
06/17/24 13:21:05.956575 0.00000,0.00000,0.00000,0.00000,0.00000,0.00000,0.00000,0.00000,0.00000,0.00000,0.00000,0.00000 94 -1.11785,-2.06323,0.77185 0.18671,0.91211,-0.22467 -0.04200,-0.50400,0.00000 -1.11785,-2.06323,0.77185 0.18671,0.91211,-0.22467 -0.04186,-0.50423,0.00173 0.07628,-0.07518,-0.23701
06/17/24 13:21:06.000527 0.00000,0.00000,0.00000,0.00000,0.00000,0.00000,0.00000,0.00000,0.00000,0.00000,0.00000,0.00000 94 0.32152,-0.92303,0.83040 0.19873,1.16431,-0.06073 -0.04800,-0.51300,-0.01800 0.32152,-0.92303,0.83040 0.19873,1.16431,-0.06073 -0.04590,-0.51479,-0.01525 -0.04222,0.11038,-0.40505
06/17/24 13:21:06.044309 0.00000,0.00000,0.00000,0.00000,0.00000,0.00000,0.00000,0.00000,0.00000,0.00000,0.00000,0.00000 94 0.02342,-0.90386,0.55893 0.60388,0.71613,-0.02533 -0.06000,-0.51750,-0.00600 0.02342,-0.90386,0.55893 0.60388,0.71613,-0.02533 -0.05970,-0.51679,-0.00665 -0.30375,-0.11593,0.06561
06/17/24 13:21:06.087597 0.00000,0.00000,0.00000,0.00000,0.00000,0.00000,0.00000,0.00000,0.00000,0.00000,0.00000,0.00000 94 1.06888,-0.81018,1.53731 0.36816,0.86908,-0.21405 -0.06750,-0.51750,-0.00450 1.06888,-0.81018,1.53731 0.36816,0.86908,-0.21405 -0.06414,-0.52084,-0.00761 0.01268,-0.03903,-0.11415
06/17/24 13:21:06.131500 0.00000,0.00000,0.00000,0.00000,0.00000,0.00000,0.00000,0.00000,0.00000,0.00000,0.00000,0.00000 94 1.80985,0.52699,1.81624 0.49469,1.00085,-0.48987 -0.09000,-0.51000,0.02550 1.80985,0.52699,1.81624 0.49469,1.00085,-0.48987 -0.08728,-0.51178,0.02224 0.15841,0.20746,-0.05785
06/17/24 13:21:06.174817 0.00000,0.00000,0.00000,0.00000,0.00000,0.00000,0.00000,0.00000,0.00000,0.00000,0.00000,0.00000 94 0.40562,0.78569,1.03162 0.51978,0.64008,-0.28143 -0.12600,-0.49950,0.04200 0.40562,0.78569,1.03162 0.51978,0.64008,-0.28143 -0.10172,-0.50437,0.03474 -0.01982,-0.12932,0.02424
06/17/24 13:21:06.218612 0.00000,0.00000,0.00000,0.00000,0.00000,0.00000,0.00000,0.00000,0.00000,0.00000,0.00000,0.00000 94 -0.99223,0.52379,0.23635 0.68823,0.80072,-0.46405 -0.15300,-0.49500,0.04650 -0.99223,0.52379,0.23635 0.68823,0.80072,-0.46405 -0.13960,-0.49664,0.04345 0.10367,0.14623,0.07459
06/17/24 13:21:06.262604 0.00000,0.00000,0.00000,0.00000,0.00000,0.00000,0.00000,0.00000,0.00000,0.00000,0.00000,0.00000 94 -0.98477,0.15011,0.19376 0.60492,0.50214,-0.28217 -0.16800,-0.50700,0.03150 -0.98477,0.15011,0.19376 0.60492,0.50214,-0.28217 -0.15114,-0.50015,0.03992 -0.01227,-0.18156,0.16641
06/17/24 13:21:06.305943 0.00000,0.00000,0.00000,0.00000,0.00000,0.00000,0.00000,0.00000,0.00000,0.00000,0.00000,0.00000 94 -2.24315,0.67177,3.55264 0.32257,0.24115,-0.27454 -0.17550,-0.50700,0.01500 -2.24315,0.67177,3.55264 0.32257,0.24115,-0.27454 -0.17427,-0.50731,0.01592 0.12792,-0.55515,0.15271
06/17/24 13:21:06.350004 0.00000,0.00000,0.00000,0.00000,0.00000,0.00000,0.00000,0.00000,0.00000,0.00000,0.00000,0.00000 94 -1.51070,1.28606,3.73681 1.05133,0.41693,0.01654 -0.27900,-0.47850,-0.01050 -1.51070,1.28606,3.73681 1.05133,0.41693,0.01654 -0.25828,-0.48587,-0.00544 -0.25773,0.09512,0.11699
06/17/24 13:21:06.393328 0.00000,0.00000,0.00000,0.00000,0.00000,0.00000,0.00000,0.00000,0.00000,0.00000,0.00000,0.00000 94 -1.18066,1.11040,0.21399 0.61224,0.45996,0.05078 -0.31950,-0.46950,-0.03600 -1.18066,1.11040,0.21399 0.61224,0.45996,0.05078 -0.31813,-0.46972,-0.03352 -0.04063,-0.24542,-0.13395
06/17/24 13:21:06.437187 0.00000,0.00000,0.00000,0.00000,0.00000,0.00000,0.00000,0.00000,0.00000,0.00000,0.00000,0.00000 94 0.86660,-0.97732,-1.01565 0.96515,0.61334,-0.06213 -0.32400,-0.47250,-0.04950 0.86660,-0.97732,-1.01565 0.96515,0.61334,-0.06213 -0.32469,-0.47340,-0.04918 -0.01036,0.14516,-0.00847
06/17/24 13:21:06.481313 0.00000,0.00000,0.00000,0.00000,0.00000,0.00000,0.00000,0.00000,0.00000,0.00000,0.00000,0.00000 94 0.18950,-1.27754,-2.00361 0.69110,0.58496,-0.14508 -0.28650,-0.47850,-0.02700 0.18950,-1.27754,-2.00361 0.69110,0.58496,-0.14508 -0.32028,-0.47561,-0.04696 0.06181,-0.08576,-0.03445
06/17/24 13:21:06.524791 0.00000,0.00000,0.00000,0.00000,0.00000,0.00000,0.00000,0.00000,0.00000,0.00000,0.00000,0.00000 94 -0.80059,-1.27222,-2.42307 0.83319,0.76587,-0.05145 -0.24600,-0.50400,-0.01950 -0.80059,-1.27222,-2.42307 0.83319,0.76587,-0.05145 -0.26038,-0.49831,-0.02419 -0.09444,0.12755,-0.05592
06/17/24 13:21:06.568716 0.00000,0.00000,0.00000,0.00000,0.00000,0.00000,0.00000,0.00000,0.00000,0.00000,0.00000,0.00000 94 -0.87725,-0.75056,0.52273 0.80688,0.74219,-0.28339 -0.21450,-0.52050,-0.03600 -0.87725,-0.75056,0.52273 0.80688,0.74219,-0.28339 -0.25105,-0.50258,-0.02543 0.07818,0.12445,0.10824
06/17/24 13:21:06.612355 0.00000,0.00000,0.00000,0.00000,0.00000,0.00000,0.00000,0.00000,0.00000,0.00000,0.00000,0.00000 94 -2.55722,-0.88150,2.04833 0.83270,0.85638,-0.11908 -0.22800,-0.51750,-0.05850 -2.55722,-0.88150,2.04833 0.83270,0.85638,-0.11908 -0.24534,-0.50583,-0.03173 0.02658,0.19831,-0.06574
06/17/24 13:21:06.656260 0.00000,0.00000,0.00000,0.00000,0.00000,0.00000,0.00000,0.00000,0.00000,0.00000,0.00000,0.00000 94 -0.30448,-0.31406,-0.98477 0.96149,0.46948,0.04218 -0.25950,-0.51900,-0.08400 -0.30448,-0.31406,-0.98477 0.96149,0.46948,0.04218 -0.25780,-0.51740,-0.08303 -0.27977,0.02927,0.09477
06/17/24 13:21:06.700160 0.00000,0.00000,0.00000,0.00000,0.00000,0.00000,0.00000,0.00000,0.00000,0.00000,0.00000,0.00000 94 1.40530,-0.44820,-1.72788 0.68597,0.71552,-0.12903 -0.23700,-0.52950,-0.08250 1.40530,-0.44820,-1.72788 0.68597,0.71552,-0.12903 -0.25404,-0.51503,-0.08898 0.02966,-0.00100,-0.01728
06/17/24 13:21:06.743894 0.00000,0.00000,0.00000,0.00000,0.00000,0.00000,0.00000,0.00000,0.00000,0.00000,0.00000,0.00000 94 1.55434,-0.84424,-0.47801 0.62683,0.53430,-0.10120 -0.21600,-0.52350,-0.05850 1.55434,-0.84424,-0.47801 0.62683,0.53430,-0.10120 -0.21981,-0.52546,-0.06254 -0.08111,-0.17476,0.03217
06/17/24 13:21:06.787888 0.00000,0.00000,0.00000,0.00000,0.00000,0.00000,0.00000,0.00000,0.00000,0.00000,0.00000,0.00000 94 0.16608,-0.49185,-0.28532 0.67328,0.59485,-0.30762 -0.19950,-0.51900,-0.02700 0.16608,-0.49185,-0.28532 0.67328,0.59485,-0.30762 -0.21089,-0.51903,-0.04047 0.02329,-0.05924,0.12731
06/17/24 13:21:06.831335 0.00000,0.00000,0.00000,0.00000,0.00000,0.00000,0.00000,0.00000,0.00000,0.00000,0.00000,0.00000 94 -0.24273,0.16715,-0.70691 0.54578,0.62958,-0.26099 -0.19200,-0.52650,-0.02400 -0.24273,0.16715,-0.70691 0.54578,0.62958,-0.26099 -0.19339,-0.52544,-0.02822 0.05282,-0.12961,0.04454
06/17/24 13:21:06.875440 0.00000,0.00000,0.00000,0.00000,0.00000,0.00000,0.00000,0.00000,0.00000,0.00000,0.00000,0.00000 94 0.14266,0.75056,-1.25199 0.46942,0.57288,-0.21484 -0.17550,-0.53400,-0.03150 0.14266,0.75056,-1.25199 0.46942,0.57288,-0.21484 -0.19231,-0.52595,-0.02845 0.03738,-0.23103,0.04456
06/17/24 13:21:06.918861 0.00000,0.00000,0.00000,0.00000,0.00000,0.00000,0.00000,0.00000,0.00000,0.00000,0.00000,0.00000 94 1.07314,1.13914,-2.33471 0.95581,0.88623,-0.10059 -0.15600,-0.54150,-0.03900 1.07314,1.13914,-2.33471 0.95581,0.88623,-0.10059 -0.16139,-0.53923,-0.03651 -0.27186,0.27319,0.11904
06/17/24 13:21:06.962784 0.00000,0.00000,0.00000,0.00000,0.00000,0.00000,0.00000,0.00000,0.00000,0.00000,0.00000,0.00000 94 0.78462,0.60470,-6.90725 0.22180,1.17780,-0.69806 -0.07350,-0.54300,-0.00150 0.78462,0.60470,-6.90725 0.22180,1.17780,-0.69806 -0.07974,-0.54304,-0.00447 0.43494,0.31655,0.03472
06/17/24 13:21:07.006899 0.00000,0.00000,0.00000,0.00000,0.00000,0.00000,0.00000,0.00000,0.00000,0.00000,0.00000,0.00000 94 -4.43627,-0.58341,-6.57296 0.27472,1.04608,-0.50067 0.07650,-0.51000,-0.02700 -4.43627,-0.58341,-6.57296 0.27472,1.04608,-0.50067 0.06333,-0.51399,-0.01783 0.18738,0.11164,0.38675
06/17/24 13:21:07.050462 0.00000,0.00000,0.00000,0.00000,0.00000,0.00000,0.00000,0.00000,0.00000,0.00000,0.00000,0.00000 94 -5.10379,0.68774,-8.08898 0.52869,0.09009,-0.18616 0.18900,-0.45900,-0.10350 -5.10379,0.68774,-8.08898 0.52869,0.09009,-0.18616 0.18213,-0.46247,-0.09882 -0.14146,-1.05663,0.54687
06/17/24 13:21:07.094538 0.00000,0.00000,0.00000,0.00000,0.00000,0.00000,0.00000,0.00000,0.00000,0.00000,0.00000,0.00000 94 -4.37559,2.76801,-12.65620 -0.24384,0.03058,0.05579 0.30600,-0.33300,-0.14550 -4.37559,2.76801,-12.65620 -0.24384,0.03058,0.05579 0.29925,-0.34079,-0.14491 0.05171,-0.80424,-0.15002
06/17/24 13:21:07.138330 0.00000,0.00000,0.00000,0.00000,0.00000,0.00000,0.00000,0.00000,0.00000,0.00000,0.00000,0.00000 94 -3.79963,4.70455,-10.22354 -0.73438,-0.19464,0.13831 0.38550,-0.05250,-0.09000 -3.79963,4.70455,-10.22354 -0.73438,-0.19464,0.13831 0.38518,-0.07671,-0.10182 0.04095,-0.33446,-0.38949
06/17/24 13:21:07.182352 0.00000,0.00000,0.00000,0.00000,0.00000,0.00000,0.00000,0.00000,0.00000,0.00000,0.00000,0.00000 94 -1.04759,4.36175,-0.51315 -1.30994,-0.10242,0.29260 0.33450,0.11850,-0.00450 -1.04759,4.36175,-0.51315 -1.30994,-0.10242,0.29260 0.33756,0.11223,-0.00886 -0.29040,0.30478,-0.15888
06/17/24 13:21:07.226552 0.00000,0.00000,0.00000,0.00000,0.00000,0.00000,0.00000,0.00000,0.00000,0.00000,0.00000,0.00000 94 1.19983,3.01394,2.00787 -0.82526,-0.26019,0.22894 0.28200,0.12300,0.08850 1.19983,3.01394,2.00787 -0.82526,-0.26019,0.22894 0.28773,0.12491,0.07902 -0.32361,-0.23954,-0.34372
06/17/24 13:21:07.270034 0.00000,0.00000,0.00000,0.00000,0.00000,0.00000,0.00000,0.00000,0.00000,0.00000,0.00000,0.00000 94 3.86457,0.44927,1.62993 -0.83447,-0.45136,0.16418 0.24450,0.11250,0.08850 3.86457,0.44927,1.62993 -0.83447,-0.45136,0.16418 0.24763,0.11482,0.08978 -0.20727,-0.29148,-0.61812
06/17/24 13:21:07.313998 0.00000,0.00000,0.00000,0.00000,0.00000,0.00000,0.00000,0.00000,0.00000,0.00000,0.00000,0.00000 94 3.89225,-1.64058,-3.37165 -0.93268,-0.98071,-0.10236 0.20100,0.12750,0.06600 3.89225,-1.64058,-3.37165 -0.93268,-0.98071,-0.10236 0.20379,0.12545,0.06697 0.26049,-0.05186,-0.93559
06/17/24 13:21:07.357712 0.00000,0.00000,0.00000,0.00000,0.00000,0.00000,0.00000,0.00000,0.00000,0.00000,0.00000,0.00000 94 5.77556,-4.22335,0.65261 -1.52234,-0.21790,-0.19006 0.20250,0.17100,-0.01200 5.77556,-4.22335,0.65261 -1.52234,-0.21790,-0.19006 0.20102,0.16629,-0.00224 0.08845,0.54566,0.06500
06/17/24 13:21:07.401716 0.00000,0.00000,0.00000,0.00000,0.00000,0.00000,0.00000,0.00000,0.00000,0.00000,0.00000,0.00000 94 -5.29861,-3.32587,-7.89522 -1.64117,-0.51904,0.16846 0.22800,0.16050,-0.06750 -5.29861,-3.32587,-7.89522 -1.64117,-0.51904,0.16846 0.22786,0.15650,-0.05592 0.06461,0.72239,-0.14299
06/17/24 13:21:07.445810 0.00000,0.00000,0.00000,0.00000,0.00000,0.00000,0.00000,0.00000,0.00000,0.00000,0.00000,0.00000 94 -1.68103,-2.87447,0.59193 -2.00000,0.48273,-0.23315 0.17550,0.24000,-0.06300 -1.68103,-2.87447,0.59193 -2.00000,0.48273,-0.23315 0.17822,0.23740,-0.06274 0.03185,0.46969,1.45821
06/17/24 13:21:07.489452 0.00000,0.00000,0.00000,0.00000,0.00000,0.00000,0.00000,0.00000,0.00000,0.00000,0.00000,0.00000 94 0.96561,-2.18992,-3.74107 -0.53375,-0.01575,0.28778 0.22350,0.20850,-0.07950 0.96561,-2.18992,-3.74107 -0.53375,-0.01575,0.28778 0.22051,0.21179,-0.07703 -0.16914,-0.43874,0.15600
06/17/24 13:21:07.533484 0.00000,0.00000,0.00000,0.00000,0.00000,0.00000,0.00000,0.00000,0.00000,0.00000,0.00000,0.00000 94 1.67039,-1.22218,0.83786 -1.11530,-0.20160,0.16602 0.16050,0.28050,-0.12450 1.67039,-1.22218,0.83786 -1.11530,-0.20160,0.16602 0.16470,0.27614,-0.12219 0.11188,0.04191,0.46259
06/17/24 13:21:07.576989 0.00000,0.00000,0.00000,0.00000,0.00000,0.00000,0.00000,0.00000,0.00000,0.00000,0.00000,0.00000 94 -1.79814,-2.29851,2.25380 -0.88709,0.04242,0.30859 0.17250,0.26100,-0.15900 -1.79814,-2.29851,2.25380 -0.88709,0.04242,0.30859 0.17144,0.26227,-0.15773 -0.07527,-0.17263,0.44016
06/17/24 13:21:07.621239 0.00000,0.00000,0.00000,0.00000,0.00000,0.00000,0.00000,0.00000,0.00000,0.00000,0.00000,0.00000 94 1.90673,0.66645,2.82869 -0.58838,0.04187,0.04456 0.20850,0.21750,-0.17550 1.90673,0.66645,2.82869 -0.58838,0.04187,0.04456 0.20366,0.22419,-0.17136 0.13117,-0.49488,0.27853
06/17/24 13:21:07.665245 0.00000,0.00000,0.00000,0.00000,0.00000,0.00000,0.00000,0.00000,0.00000,0.00000,0.00000,0.00000 94 -0.78782,0.02236,-2.65623 -1.44806,-0.21185,1.11230 0.22950,0.19650,-0.17850 -0.78782,0.02236,-2.65623 -1.44806,-0.21185,1.11230 0.22951,0.19605,-0.17852 -0.40570,0.79154,0.06897
06/17/24 13:21:07.708841 0.00000,0.00000,0.00000,0.00000,0.00000,0.00000,0.00000,0.00000,0.00000,0.00000,0.00000,0.00000 94 0.39391,-0.63132,4.65345 -1.15894,-0.44843,0.82709 0.21300,0.20250,-0.18000 0.39391,-0.63132,4.65345 -1.15894,-0.44843,0.82709 0.21325,0.20472,-0.17902 -0.09407,0.46780,-0.25495
06/17/24 13:21:07.753133 0.00000,0.00000,0.00000,0.00000,0.00000,0.00000,0.00000,0.00000,0.00000,0.00000,0.00000,0.00000 94 0.64622,-1.83647,1.99829 -0.68518,-0.23920,0.50073 0.25500,0.13650,-0.19950 0.64622,-1.83647,1.99829 -0.68518,-0.23920,0.50073 0.25259,0.14313,-0.19401 0.00567,-0.13877,-0.18887
06/17/24 13:21:07.796861 0.00000,0.00000,0.00000,0.00000,0.00000,0.00000,0.00000,0.00000,0.00000,0.00000,0.00000,0.00000 94 2.29851,-1.04120,0.29596 -0.87469,-0.16693,0.48291 0.26850,0.10500,-0.21750 2.29851,-1.04120,0.29596 -0.87469,-0.16693,0.48291 0.26723,0.10701,-0.21652 0.16335,-0.00878,-0.13026
06/17/24 13:21:07.841135 0.00000,0.00000,0.00000,0.00000,0.00000,0.00000,0.00000,0.00000,0.00000,0.00000,0.00000,0.00000 94 2.05152,-0.01278,1.04971 -1.00201,-0.07953,0.33350 0.26850,0.10800,-0.25350 2.05152,-0.01278,1.04971 -1.00201,-0.07953,0.33350 0.26796,0.11053,-0.24900 0.34305,0.00194,-0.00446
06/17/24 13:21:07.885251 0.00000,0.00000,0.00000,0.00000,0.00000,0.00000,0.00000,0.00000,0.00000,0.00000,0.00000,0.00000 94 3.10017,1.36484,0.42265 -0.77948,0.35968,0.42773 0.28350,0.09300,-0.25200 3.10017,1.36484,0.42265 -0.77948,0.35968,0.42773 0.28041,0.09713,-0.25604 -0.07563,-0.06443,0.19725
06/17/24 13:21:07.928823 0.00000,0.00000,0.00000,0.00000,0.00000,0.00000,0.00000,0.00000,0.00000,0.00000,0.00000,0.00000 94 0.66965,0.79314,-1.66932 -0.79028,0.11926,0.45697 0.28650,0.07050,-0.23250 0.66965,0.79314,-1.66932 -0.79028,0.11926,0.45697 0.28547,0.07311,-0.23444 0.00165,-0.08189,-0.06828
06/17/24 13:21:07.973044 0.00000,0.00000,0.00000,0.00000,0.00000,0.00000,0.00000,0.00000,0.00000,0.00000,0.00000,0.00000 94 1.51070,0.17353,0.49505 -0.64850,0.12006,0.60101 0.28350,0.06900,-0.24000 1.51070,0.17353,0.49505 -0.64850,0.12006,0.60101 0.28383,0.07187,-0.23984 -0.16484,-0.14189,-0.18069
06/17/24 13:21:08.016631 0.00000,0.00000,0.00000,0.00000,0.00000,0.00000,0.00000,0.00000,0.00000,0.00000,0.00000,0.00000 94 2.20589,0.57064,-2.09198 -0.90137,0.33398,0.29962 0.27600,0.05400,-0.24600 2.20589,0.57064,-2.09198 -0.90137,0.33398,0.29962 0.28026,0.06124,-0.24498 -0.02890,-0.00877,0.17437
06/17/24 13:21:08.060764 0.00000,0.00000,0.00000,0.00000,0.00000,0.00000,0.00000,0.00000,0.00000,0.00000,0.00000,0.00000 94 -0.10540,0.77717,0.49931 -0.91003,0.28485,0.15839 0.28200,0.06000,-0.25650 -0.10540,0.77717,0.49931 -0.91003,0.28485,0.15839 0.28166,0.05974,-0.25734 0.03418,-0.06135,0.22840
06/17/24 13:21:08.104571 0.00000,0.00000,0.00000,0.00000,0.00000,0.00000,0.00000,0.00000,0.00000,0.00000,0.00000,0.00000 94 -0.80272,1.01032,-0.67177 -0.99829,0.11713,0.38141 0.28650,0.06000,-0.24150 -0.80272,1.01032,-0.67177 -0.99829,0.11713,0.38141 0.28192,0.05355,-0.25584 0.02807,0.07306,-0.05935
06/17/24 13:21:08.148717 0.00000,0.00000,0.00000,0.00000,0.00000,0.00000,0.00000,0.00000,0.00000,0.00000,0.00000,0.00000 94 -0.47908,0.60364,0.65261 -0.83685,-0.00287,0.34961 0.28500,0.06750,-0.23100 -0.47908,0.60364,0.65261 -0.83685,-0.00287,0.34961 0.28533,0.06590,-0.23094 0.04179,-0.10319,-0.12860
06/17/24 13:21:08.192931 0.00000,0.00000,0.00000,0.00000,0.00000,0.00000,0.00000,0.00000,0.00000,0.00000,0.00000,0.00000 94 0.07559,0.27041,-0.80698 -0.94196,0.21191,0.34326 0.28350,0.06900,-0.21300 0.07559,0.27041,-0.80698 -0.94196,0.21191,0.34326 0.28706,0.05994,-0.21264 -0.08067,0.02065,0.04228
06/17/24 13:21:08.236513 0.00000,0.00000,0.00000,0.00000,0.00000,0.00000,0.00000,0.00000,0.00000,0.00000,0.00000,0.00000 94 -0.83253,-0.40030,-0.73672 -0.73578,0.06854,0.30029 0.27300,0.08850,-0.21000 -0.83253,-0.40030,-0.73672 -0.73578,0.06854,0.30029 0.28222,0.07567,-0.21131 -0.02511,-0.20341,-0.03252
06/17/24 13:21:08.305620 0.00000,299.82001,0.10990,-0.19174,0.22100,0.50900,0.14600,0.48400,0.03900,179.10770,100.00000,0.05578 94 0.80059,-0.36197,-2.00787 -1.06818,-0.12085,0.34949 0.26850,0.11850,-0.19950 0.80059,-0.36197,-2.00787 -1.06818,-0.12085,0.34949 0.28033,0.10222,-0.20053 0.12331,0.12225,-0.05555
06/17/24 13:21:08.349424 0.00000,299.82001,0.10990,-0.19174,0.22100,0.50900,0.14600,0.48400,0.03900,179.10770,100.00000,0.05578 94 -1.41701,-0.96880,-1.03162 -0.86969,0.06000,0.37891 0.25950,0.13500,-0.21150 -1.41701,-0.96880,-1.03162 -0.86969,0.06000,0.37891 0.26094,0.13411,-0.21330 -0.04113,-0.05203,0.05650
06/17/24 13:21:08.393715 0.00000,299.82001,0.10990,-0.19174,0.22100,0.50900,0.14600,0.48400,0.03900,179.10770,100.00000,0.05578 94 -1.86415,-0.56531,-0.32790 -1.11926,-0.31116,0.15643 0.25350,0.14100,-0.21600 -1.86415,-0.56531,-0.32790 -1.11926,-0.31116,0.15643 0.25403,0.14047,-0.21633 0.39940,0.10053,0.05788
06/17/24 13:21:08.437635 0.00000,299.82001,0.10990,-0.19174,0.22100,0.50900,0.14600,0.48400,0.03900,179.10770,100.00000,0.05578 94 -0.38326,0.22783,0.43117 -0.76013,0.16193,0.53314 0.24150,0.15000,-0.19950 -0.38326,0.22783,0.43117 -0.76013,0.16193,0.53314 0.24207,0.15175,-0.20239 -0.27319,-0.10552,0.11635
06/17/24 13:21:08.481928 0.00000,299.82001,0.10990,-0.19174,0.22100,0.50900,0.14600,0.48400,0.03900,179.10770,100.00000,0.05578 94 -0.93899,-0.10859,-1.27541 -0.89679,-0.01593,0.31439 0.23850,0.17400,-0.18450 -0.93899,-0.10859,-1.27541 -0.89679,-0.01593,0.31439 0.23898,0.17115,-0.18512 0.01419,-0.05927,0.13472
06/17/24 13:21:08.526451 0.00000,299.82001,0.10990,-0.19174,0.22100,0.50900,0.14600,0.48400,0.03900,179.10770,100.00000,0.05578 94 -1.11040,-0.50250,0.68881 -0.87836,-0.17377,0.65405 0.22650,0.18300,-0.18600 -1.11040,-0.50250,0.68881 -0.87836,-0.17377,0.65405 0.22760,0.18150,-0.18640 -0.19366,0.08688,-0.10339
06/17/24 13:21:08.570169 0.00000,299.82001,0.10990,-0.19174,0.22100,0.50900,0.14600,0.48400,0.03900,179.10770,100.00000,0.05578 94 -0.10220,-0.52379,0.71010 -0.67987,0.13824,0.36377 0.24000,0.16950,-0.18300 -0.10220,-0.52379,0.71010 -0.67987,0.13824,0.36377 0.23647,0.17425,-0.18160 -0.13361,-0.24987,0.18197
06/17/24 13:21:08.614400 0.00000,299.82001,0.10990,-0.19174,0.22100,0.50900,0.14600,0.48400,0.03900,179.10770,100.00000,0.05578 94 -0.21718,-0.73033,0.71436 -0.95251,-0.18201,0.35358 0.23100,0.18450,-0.19350 -0.21718,-0.73033,0.71436 -0.95251,-0.18201,0.35358 0.23992,0.17478,-0.18881 0.12889,0.02350,0.03539
06/17/24 13:21:08.658291 0.00000,299.82001,0.10990,-0.19174,0.22100,0.50900,0.14600,0.48400,0.03900,179.10770,100.00000,0.05578 94 -0.17673,-1.16682,1.63951 -0.54938,-0.11072,0.29315 0.24150,0.16350,-0.21150 -0.17673,-1.16682,1.63951 -0.54938,-0.11072,0.29315 0.23764,0.17496,-0.19693 0.03815,-0.36966,-0.03499
06/17/24 13:21:08.702543 0.00000,299.82001,0.10990,-0.19174,0.22100,0.50900,0.14600,0.48400,0.03900,179.10770,100.00000,0.05578 94 0.32684,-0.75375,0.45140 -0.77405,-0.25647,0.42059 0.25050,0.15150,-0.22050 0.32684,-0.75375,0.45140 -0.77405,-0.25647,0.42059 0.25012,0.15172,-0.21875 0.12248,-0.10120,-0.13781
06/17/24 13:21:08.746968 0.00000,299.82001,0.10990,-0.19174,0.22100,0.50900,0.14600,0.48400,0.03900,179.10770,100.00000,0.05578 94 2.19737,-0.42478,-0.26935 -1.09760,-0.04346,0.69922 0.24150,0.15450,-0.23100 2.19737,-0.42478,-0.26935 -1.09760,-0.04346,0.69922 0.24848,0.15197,-0.21839 -0.01307,0.30011,0.07107
06/17/24 13:21:08.790711 0.00000,299.82001,0.10990,-0.19174,0.22100,0.50900,0.14600,0.48400,0.03900,179.10770,100.00000,0.05578 94 1.70446,-0.18205,0.72607 -0.59143,-0.13568,0.15234 0.23850,0.14250,-0.25800 1.70446,-0.18205,0.72607 -0.59143,-0.13568,0.15234 0.23856,0.14588,-0.25447 0.23329,-0.41983,0.01971
06/17/24 13:21:08.835041 0.00000,299.82001,0.10990,-0.19174,0.22100,0.50900,0.14600,0.48400,0.03900,179.10770,100.00000,0.05578 94 -0.49824,0.33216,-0.34707 -0.81250,-0.12604,0.48291 0.24450,0.12900,-0.27150 -0.49824,0.33216,-0.34707 -0.81250,-0.12604,0.48291 0.24390,0.13004,-0.27146 0.08772,-0.05149,-0.04340
06/17/24 13:21:08.878964 0.00000,299.82001,0.10990,-0.19174,0.22100,0.50900,0.14600,0.48400,0.03900,179.10770,100.00000,0.05578 94 0.38220,0.84744,0.23954 -0.92273,0.15021,0.38043 0.25050,0.13050,-0.26100 0.38220,0.84744,0.23954 -0.92273,0.15021,0.38043 0.24875,0.13263,-0.26364 0.02892,-0.02245,0.24955
06/17/24 13:21:08.923337 0.00000,299.82001,0.10990,-0.19174,0.22100,0.50900,0.14600,0.48400,0.03900,179.10770,100.00000,0.05578 94 -0.46417,0.74417,-0.03620 -0.78375,0.10297,0.44525 0.25950,0.12300,-0.25650 -0.46417,0.74417,-0.03620 -0.78375,0.10297,0.44525 0.25549,0.12526,-0.25824 -0.07082,-0.10203,0.10842
06/17/24 13:21:08.967679 0.00000,299.82001,0.10990,-0.19174,0.22100,0.50900,0.14600,0.48400,0.03900,179.10770,100.00000,0.05578 94 -0.26935,0.52592,-0.31300 -1.08502,-0.06653,0.62274 0.25500,0.13500,-0.23100 -0.26935,0.52592,-0.31300 -1.08502,-0.06653,0.62274 0.25585,0.12534,-0.25657 -0.02901,0.25231,-0.01978
06/17/24 13:21:09.011636 0.00000,299.82001,0.10990,-0.19174,0.22100,0.50900,0.14600,0.48400,0.03900,179.10770,100.00000,0.05578 94 -0.47482,0.33429,1.23070 -0.93292,0.08118,0.44116 0.25650,0.13200,-0.22350 -0.47482,0.33429,1.23070 -0.93292,0.08118,0.44116 0.25591,0.12656,-0.25324 -0.03044,0.02850,0.11326
06/17/24 13:21:09.055925 0.00000,299.82001,0.10990,-0.19174,0.22100,0.50900,0.14600,0.48400,0.03900,179.10770,100.00000,0.05578 94 -0.45566,0.27893,-0.46950 -1.07874,0.11829,0.57867 0.26250,0.12450,-0.21300 -0.45566,0.27893,-0.46950 -1.07874,0.11829,0.57867 0.26525,0.12861,-0.21249 -0.07650,0.22334,0.10054
06/17/24 13:21:09.099879 0.00000,299.82001,0.10990,-0.19174,0.22100,0.50900,0.14600,0.48400,0.03900,179.10770,100.00000,0.05578 94 -0.72714,-0.31193,1.57244 -0.82227,-0.11407,0.36304 0.26550,0.12900,-0.20250 -0.72714,-0.31193,1.57244 -0.82227,-0.11407,0.36304 0.26667,0.12983,-0.20474 0.09939,-0.10297,-0.07988
06/17/24 13:21:09.144221 0.00000,299.82001,0.10990,-0.19174,0.22100,0.50900,0.14600,0.48400,0.03900,179.10770,100.00000,0.05578 94 -0.39604,-0.44501,1.60438 -0.60449,0.22540,0.60736 0.28500,0.10650,-0.20700 -0.39604,-0.44501,1.60438 -0.60449,0.22540,0.60736 0.28243,0.11052,-0.20916 -0.28608,-0.16347,0.05901
06/17/24 13:21:09.188601 0.00000,299.82001,0.10990,-0.19174,0.22100,0.50900,0.14600,0.48400,0.03900,179.10770,100.00000,0.05578 94 -1.03587,-0.68561,-1.54583 -1.25110,-0.18542,0.41614 0.28200,0.10200,-0.21450 -1.03587,-0.68561,-1.54583 -1.25110,-0.18542,0.41614 0.28264,0.10035,-0.21386 0.33854,0.28418,-0.09518
06/17/24 13:21:09.232632 0.00000,299.82001,0.10990,-0.19174,0.22100,0.50900,0.14600,0.48400,0.03900,179.10770,100.00000,0.05578 94 -0.20121,0.00106,1.07314 -0.87231,0.13501,0.42279 0.27300,0.10350,-0.21300 -0.20121,0.00106,1.07314 -0.87231,0.13501,0.42279 0.27172,0.11031,-0.21843 0.04332,-0.02971,0.12075
06/17/24 13:21:09.276951 0.00000,299.82001,0.10990,-0.19174,0.22100,0.50900,0.14600,0.48400,0.03900,179.10770,100.00000,0.05578 94 0.24380,0.57064,-0.35026 -0.84204,-0.03339,0.41638 0.27750,0.10650,-0.20850 0.24380,0.57064,-0.35026 -0.84204,-0.03339,0.41638 0.27894,0.10618,-0.21116 0.06465,-0.06294,-0.03541
06/17/24 13:21:09.321005 0.00000,299.82001,0.10990,-0.19174,0.22100,0.50900,0.14600,0.48400,0.03900,179.10770,100.00000,0.05578 94 -0.27148,0.68881,-0.51102 -0.87811,0.03363,0.47083 0.28050,0.09600,-0.20400 -0.27148,0.68881,-0.51102 -0.87811,0.03363,0.47083 0.27947,0.10059,-0.21026 -0.01264,-0.00315,0.00392
06/17/24 13:21:09.365333 0.00000,299.82001,0.10990,-0.19174,0.22100,0.50900,0.14600,0.48400,0.03900,179.10770,100.00000,0.05578 94 -0.12137,0.27574,0.30768 -0.81329,-0.05798,0.53998 0.27750,0.11550,-0.19200 -0.12137,0.27574,0.30768 -0.81329,-0.05798,0.53998 0.27809,0.11125,-0.19667 -0.08649,-0.03202,-0.10918
06/17/24 13:21:09.409640 0.00000,299.82001,0.10990,-0.19174,0.22100,0.50900,0.14600,0.48400,0.03900,179.10770,100.00000,0.05578 94 0.75056,0.00745,-0.65900 -0.82446,0.00085,0.52576 0.27300,0.11550,-0.18900 0.75056,0.00745,-0.65900 -0.82446,0.00085,0.52576 0.27334,0.11504,-0.18947 -0.08385,-0.02693,-0.04753
06/17/24 13:21:09.453572 0.00000,299.82001,0.10990,-0.19174,0.22100,0.50900,0.14600,0.48400,0.03900,179.10770,100.00000,0.05578 94 0.59619,-0.22570,-0.66326 -1.00854,0.00769,0.49768 0.27300,0.11850,-0.19200 0.59619,-0.22570,-0.66326 -1.00854,0.00769,0.49768 0.27222,0.11532,-0.18749 0.01652,0.12440,0.01896
06/17/24 13:21:09.497880 0.00000,299.82001,0.10990,-0.19174,0.22100,0.50900,0.14600,0.48400,0.03900,179.10770,100.00000,0.05578 94 0.89641,-0.02874,-0.74204 -0.89423,-0.00543,0.40356 0.27000,0.12600,-0.20400 0.89641,-0.02874,-0.74204 -0.89423,-0.00543,0.40356 0.27195,0.11599,-0.18857 0.04857,-0.02089,0.03887
06/17/24 13:21:09.541610 0.00000,299.82001,0.10990,-0.19174,0.22100,0.50900,0.14600,0.48400,0.03900,179.10770,100.00000,0.05578 94 -0.14266,-0.38326,-0.43543 -0.70398,-0.00940,0.37897 0.26550,0.12600,-0.21150 -0.14266,-0.38326,-0.43543 -0.70398,-0.00940,0.37897 0.27071,0.11990,-0.19831 -0.00445,-0.20056,0.01268
06/17/24 13:21:09.586091 0.00000,299.82001,0.10990,-0.19174,0.22100,0.50900,0.14600,0.48400,0.03900,179.10770,100.00000,0.05578 94 0.53231,-0.01916,-1.00287 -0.98499,-0.04474,0.38788 0.24600,0.14400,-0.21450 0.53231,-0.01916,-1.00287 -0.98499,-0.04474,0.38788 0.25814,0.13279,-0.20747 0.11347,0.05122,0.06858
06/17/24 13:21:09.630426 0.00000,299.82001,0.10990,-0.19174,0.22100,0.50900,0.14600,0.48400,0.03900,179.10770,100.00000,0.05578 94 -0.30342,0.02768,-0.36091 -0.97949,-0.07501,0.40887 0.24150,0.15600,-0.21600 -0.30342,0.02768,-0.36091 -0.97949,-0.07501,0.40887 0.24533,0.15442,-0.21943 0.09666,0.05795,0.06011
06/17/24 13:21:09.674339 0.00000,299.82001,0.10990,-0.19174,0.22100,0.50900,0.14600,0.48400,0.03900,179.10770,100.00000,0.05578 94 0.80379,0.54934,-0.56318 -1.00146,-0.13544,0.42328 0.22950,0.16800,-0.21900 0.80379,0.54934,-0.56318 -1.00146,-0.13544,0.42328 0.23604,0.16185,-0.21991 0.09979,0.09079,0.02550
06/17/24 13:21:09.718624 0.00000,299.82001,0.10990,-0.19174,0.22100,0.50900,0.14600,0.48400,0.03900,179.10770,100.00000,0.05578 94 -0.66113,0.53231,0.36942 -0.84802,0.04169,0.41986 0.23850,0.16050,-0.21750 -0.66113,0.53231,0.36942 -0.84802,0.04169,0.41986 0.23464,0.16657,-0.21944 -0.07288,-0.06240,0.11298
06/17/24 13:21:09.762343 0.00000,299.82001,0.10990,-0.19174,0.22100,0.50900,0.14600,0.48400,0.03900,179.10770,100.00000,0.05578 94 -0.08517,0.35771,-0.20547 -0.79553,-0.06641,0.43768 0.24150,0.16800,-0.20550 -0.08517,0.35771,-0.20547 -0.79553,-0.06641,0.43768 0.23745,0.16903,-0.20698 -0.06401,-0.09185,-0.00326
06/17/24 13:21:09.806735 0.00000,299.82001,0.10990,-0.19174,0.22100,0.50900,0.14600,0.48400,0.03900,179.10770,100.00000,0.05578 94 0.26509,0.28745,-0.30980 -0.86786,-0.13898,0.43158 0.23400,0.17100,-0.19350 0.26509,0.28745,-0.30980 -0.86786,-0.13898,0.43158 0.23749,0.16898,-0.20646 0.00377,-0.02136,-0.03180
06/17/24 13:21:09.851022 0.00000,299.82001,0.10990,-0.19174,0.22100,0.50900,0.14600,0.48400,0.03900,179.10770,100.00000,0.05578 94 -0.15863,0.11924,0.17460 -0.80835,-0.10431,0.32068 0.23250,0.16950,-0.18900 -0.15863,0.11924,0.17460 -0.80835,-0.10431,0.32068 0.23750,0.16916,-0.20544 0.05390,-0.12626,0.02865
06/17/24 13:21:09.894930 0.00000,299.82001,0.10990,-0.19174,0.22100,0.50900,0.14600,0.48400,0.03900,179.10770,100.00000,0.05578 94 -0.04365,0.24806,-0.66219 -1.01410,-0.19269,0.43073 0.23250,0.17250,-0.19650 -0.04365,0.24806,-0.66219 -1.01410,-0.19269,0.43073 0.23708,0.16948,-0.20452 0.06693,0.11640,-0.01504
06/17/24 13:21:09.939215 0.00000,299.82001,0.10990,-0.19174,0.22100,0.50900,0.14600,0.48400,0.03900,179.10770,100.00000,0.05578 94 -0.53657,0.08730,0.81124 -0.73688,-0.02295,0.38751 0.24000,0.17250,-0.18900 -0.53657,0.08730,0.81124 -0.73688,-0.02295,0.38751 0.23743,0.17277,-0.19527 -0.07329,-0.17142,0.04202
06/17/24 13:21:09.980333 0.00000,299.82001,0.10990,-0.19174,0.22100,0.50900,0.14600,0.48400,0.03900,179.10770,100.00000,0.05578 94 -1.07314,-0.23422,-0.27041 -0.84045,-0.12433,0.37109 0.24600,0.16650,-0.17850 -1.07314,-0.23422,-0.27041 -0.84045,-0.12433,0.37109 0.24601,0.16818,-0.18822 0.02152,-0.07314,0.00152
06/17/24 13:21:10.024036 0.00000,299.82001,0.10990,-0.19174,0.22100,0.50900,0.14600,0.48400,0.03900,179.10770,100.00000,0.05578 94 -0.41307,-0.75588,0.18844 -0.78186,-0.21082,0.41650 0.24300,0.16950,-0.17700 -0.41307,-0.75588,0.18844 -0.78186,-0.21082,0.41650 0.24510,0.16828,-0.18511 0.01371,-0.09351,-0.08554
06/17/24 13:21:10.068501 0.00000,299.82001,0.10990,-0.19174,0.22100,0.50900,0.14600,0.48400,0.03900,179.10770,100.00000,0.05578 94 -1.35845,-0.87512,-0.80592 -1.14960,-0.32043,0.69128 0.24450,0.16800,-0.18300 -1.35845,-0.87512,-0.80592 -1.14960,-0.32043,0.69128 0.24490,0.16831,-0.18324 -0.02077,0.37509,-0.10405
06/17/24 13:21:10.112238 0.00000,299.82001,0.10990,-0.19174,0.22100,0.50900,0.14600,0.48400,0.03900,179.10770,100.00000,0.05578 94 0.76333,-0.62387,-0.26296 -1.06506,-0.04999,0.32715 0.23550,0.18300,-0.18750 0.76333,-0.62387,-0.26296 -1.06506,-0.04999,0.32715 0.23767,0.17959,-0.18631 0.15433,0.07541,0.25210
06/17/24 13:21:10.156691 0.00000,299.82001,0.10990,-0.19174,0.22100,0.50900,0.14600,0.48400,0.03900,179.10770,100.00000,0.05578 94 -0.26722,-0.80379,0.63238 -0.74854,-0.04791,0.42114 0.22650,0.18150,-0.19950 -0.26722,-0.80379,0.63238 -0.74854,-0.04791,0.42114 0.23132,0.18596,-0.19900 -0.01482,-0.14570,0.09958
06/17/24 13:21:10.201059 0.00000,299.82001,0.10990,-0.19174,0.22100,0.50900,0.14600,0.48400,0.03900,179.10770,100.00000,0.05578 94 -0.03726,-0.36197,-0.05323 -0.97345,-0.21661,0.48541 0.22500,0.18750,-0.20850 -0.03726,-0.36197,-0.05323 -0.97345,-0.21661,0.48541 0.22870,0.18576,-0.20169 0.10844,0.10352,0.02527
06/17/24 13:21:10.244791 0.00000,299.82001,0.10990,-0.19174,0.22100,0.50900,0.14600,0.48400,0.03900,179.10770,100.00000,0.05578 94 0.22996,0.04152,0.50676 -0.93237,-0.05518,0.40759 0.23400,0.17100,-0.21900 0.22996,0.04152,0.50676 -0.93237,-0.05518,0.40759 0.23433,0.17400,-0.21910 0.10007,0.00241,0.15379
06/17/24 13:21:10.289264 0.00000,299.82001,0.10990,-0.19174,0.22100,0.50900,0.14600,0.48400,0.03900,179.10770,100.00000,0.05578 94 -0.32471,-0.00319,0.21292 -0.98749,-0.19214,0.57605 0.23700,0.17550,-0.21300 -0.32471,-0.00319,0.21292 -0.98749,-0.19214,0.57605 0.23127,0.17372,-0.21499 0.03665,0.15848,-0.02168
06/17/24 13:21:10.332966 0.00000,299.82001,0.10990,-0.19174,0.22100,0.50900,0.14600,0.48400,0.03900,179.10770,100.00000,0.05578 94 0.43117,0.15650,0.45033 -0.85358,-0.08539,0.50940 0.24000,0.16350,-0.21300 0.43117,0.15650,0.45033 -0.85358,-0.08539,0.50940 0.23162,0.17344,-0.21480 -0.00889,-0.00273,0.02743
06/17/24 13:21:10.377218 0.00000,299.82001,0.10990,-0.19174,0.22100,0.50900,0.14600,0.48400,0.03900,179.10770,100.00000,0.05578 94 0.37155,0.25870,0.64303 -0.65625,-0.06195,0.44495 0.24900,0.15750,-0.21900 0.37155,0.25870,0.64303 -0.65625,-0.06195,0.44495 0.23456,0.17040,-0.21528 -0.05051,-0.20646,-0.01468
06/17/24 13:21:10.421656 0.00000,299.82001,0.10990,-0.19174,0.22100,0.50900,0.14600,0.48400,0.03900,179.10770,100.00000,0.05578 94 -1.19024,-0.09369,-0.16927 -0.82996,-0.18939,0.27820 0.24900,0.14550,-0.22050 -1.19024,-0.09369,-0.16927 -0.82996,-0.18939,0.27820 0.24979,0.14997,-0.21969 0.20519,-0.12927,-0.04261
06/17/24 13:21:10.465387 0.00000,299.82001,0.10990,-0.19174,0.22100,0.50900,0.14600,0.48400,0.03900,179.10770,100.00000,0.05578 94 -3.37165,-0.70797,0.73672 -0.87970,-0.46320,0.40454 0.24600,0.16500,-0.19950 -3.37165,-0.70797,0.73672 -0.87970,-0.46320,0.40454 0.24674,0.16393,-0.19970 0.17431,0.02687,-0.25928
06/17/24 13:21:10.509887 0.00000,299.82001,0.10990,-0.19174,0.22100,0.50900,0.14600,0.48400,0.03900,179.10770,100.00000,0.05578 94 -1.45640,0.19483,-0.20015 -0.80383,-0.28851,0.48376 0.25050,0.15450,-0.17400 -1.45640,0.19483,-0.20015 -0.80383,-0.28851,0.48376 0.24640,0.16145,-0.18100 0.00854,-0.02397,-0.10344
06/17/24 13:21:10.553655 0.00000,299.82001,0.10990,-0.19174,0.22100,0.50900,0.14600,0.48400,0.03900,179.10770,100.00000,0.05578 94 -4.76950,-0.61748,-0.00532 -0.69855,-0.19470,0.19800 0.25200,0.16200,-0.16200 -4.76950,-0.61748,-0.00532 -0.69855,-0.19470,0.19800 0.25463,0.16081,-0.16353 0.16452,-0.26655,0.00768
06/17/24 13:21:10.598016 0.00000,299.82001,0.10990,-0.19174,0.22100,0.50900,0.14600,0.48400,0.03900,179.10770,100.00000,0.05578 94 -7.87180,-1.50857,1.99829 -1.32123,-0.68878,0.35303 0.25200,0.16650,-0.12000 -7.87180,-1.50857,1.99829 -1.32123,-0.68878,0.35303 0.25232,0.16642,-0.12246 0.23722,0.50370,-0.16527
06/17/24 13:21:10.642459 0.00000,299.82001,0.10990,-0.19174,0.22100,0.50900,0.14600,0.48400,0.03900,179.10770,100.00000,0.05578 94 -4.65771,0.86341,2.28254 -1.30719,-0.16705,0.76190 0.27750,0.12750,-0.06150 -4.65771,0.86341,2.28254 -1.30719,-0.16705,0.76190 0.27291,0.13079,-0.06637 -0.02133,0.42319,0.53965
06/17/24 13:21:10.686098 0.00000,299.82001,0.10990,-0.19174,0.22100,0.50900,0.14600,0.48400,0.03900,179.10770,100.00000,0.05578 94 -3.34823,-0.22996,6.66132 -0.94537,0.11005,0.69153 0.29250,0.06900,-0.02400 -3.34823,-0.22996,6.66132 -0.94537,0.11005,0.69153 0.29165,0.07246,-0.02527 -0.05044,0.00903,0.60280
06/17/24 13:21:10.730564 0.00000,299.82001,0.10990,-0.19174,0.22100,0.50900,0.14600,0.48400,0.03900,179.10770,100.00000,0.05578 94 0.26615,-1.80453,3.44511 -0.71912,-0.10345,0.41083 0.32550,-0.06300,-0.01950 0.26615,-1.80453,3.44511 -0.71912,-0.10345,0.41083 0.32448,-0.05067,-0.01719 -0.16690,-0.18980,0.11102
06/17/24 13:21:10.774264 0.00000,299.82001,0.10990,-0.19174,0.22100,0.50900,0.14600,0.48400,0.03900,179.10770,100.00000,0.05578 94 -0.42052,-1.57244,3.96038 -1.14691,-0.22565,-0.77264 0.32850,-0.08550,-0.06000 -0.42052,-1.57244,3.96038 -1.14691,-0.22565,-0.77264 0.32841,-0.08104,-0.05425 0.52380,-0.19852,-1.02301
06/17/24 13:21:10.818580 0.00000,299.82001,0.10990,-0.19174,0.22100,0.50900,0.14600,0.48400,0.03900,179.10770,100.00000,0.05578 94 -3.44511,0.10540,1.37868 -1.57513,0.57715,0.65613 0.33150,-0.13650,-0.06600 -3.44511,0.10540,1.37868 -1.57513,0.57715,0.65613 0.33208,-0.13559,-0.06653 0.39779,0.72810,0.31636
06/17/24 13:21:10.863049 0.00000,299.82001,0.10990,-0.19174,0.22100,0.50900,0.14600,0.48400,0.03900,179.10770,100.00000,0.05578 94 3.71126,0.64409,1.01565 -0.09961,-0.42590,0.43823 0.30450,-0.27900,-0.06900 3.71126,0.64409,1.01565 -0.09961,-0.42590,0.43823 0.31013,-0.26186,-0.07125 -0.60251,-0.92270,0.11989
06/17/24 13:21:10.906735 0.00000,299.82001,0.10990,-0.19174,0.22100,0.50900,0.14600,0.48400,0.03900,179.10770,100.00000,0.05578 94 -1.99936,-0.58448,-0.88044 -2.00000,-0.06860,0.42145 0.32250,-0.16050,-0.04950 -1.99936,-0.58448,-0.88044 -2.00000,-0.06860,0.42145 0.31770,-0.18549,-0.05038 -0.02623,1.02223,-0.30366
06/17/24 13:21:10.950968 0.00000,299.82001,0.10990,-0.19174,0.22100,0.50900,0.14600,0.48400,0.03900,179.10770,100.00000,0.05578 94 -0.36197,0.67390,3.50047 -0.74866,0.55963,0.43896 0.32550,-0.18450,-0.05550 -0.36197,0.67390,3.50047 -0.74866,0.55963,0.43896 0.32627,-0.18208,-0.05537 0.26412,-0.04682,0.29675
06/17/24 13:21:10.995297 0.00000,299.82001,0.10990,-0.19174,0.22100,0.50900,0.14600,0.48400,0.03900,179.10770,100.00000,0.05578 94 3.54092,0.84105,-0.58341 -0.77686,-0.42126,0.89948 0.31200,-0.22800,-0.04350 3.54092,0.84105,-0.58341 -0.77686,-0.42126,0.89948 0.31160,-0.22777,-0.04674 -0.88824,-0.13093,0.21394
06/17/24 13:21:11.038993 0.00000,299.82001,0.10990,-0.19174,0.22100,0.50900,0.14600,0.48400,0.03900,179.10770,100.00000,0.05578 94 2.50611,1.21154,-0.76440 -0.99335,-0.07556,0.30762 0.31050,-0.19950,-0.00150 2.50611,1.21154,-0.76440 -0.99335,-0.07556,0.30762 0.31132,-0.20113,-0.00369 -0.32536,-0.02083,-0.14985
06/17/24 13:21:11.083416 0.00000,299.82001,0.10990,-0.19174,0.22100,0.50900,0.14600,0.48400,0.03900,179.10770,100.00000,0.05578 94 1.85350,0.86447,-0.99329 -0.85577,-0.00690,0.17639 0.31800,-0.17400,0.02850 1.85350,0.86447,-0.99329 -0.85577,-0.00690,0.17639 0.31626,-0.17357,0.02470 -0.20842,-0.16370,-0.14377
06/17/24 13:21:11.127113 0.00000,299.82001,0.10990,-0.19174,0.22100,0.50900,0.14600,0.48400,0.03900,179.10770,100.00000,0.05578 94 3.32907,0.60364,-1.92057 -0.73993,0.04199,0.14105 0.32400,-0.13200,0.05400 3.32907,0.60364,-1.92057 -0.73993,0.04199,0.14105 0.32125,-0.13708,0.05038 -0.13525,-0.26010,-0.05842
06/17/24 13:21:11.171401 0.00000,299.82001,0.10990,-0.19174,0.22100,0.50900,0.14600,0.48400,0.03900,179.10770,100.00000,0.05578 94 2.33471,-0.02342,-1.78004 -0.71521,0.20239,-0.05786 0.31650,-0.06900,0.06000 2.33471,-0.02342,-1.78004 -0.71521,0.20239,-0.05786 0.31645,-0.07178,0.05923 0.13692,-0.26727,0.01387
06/17/24 13:21:11.215704 0.00000,299.82001,0.10990,-0.19174,0.22100,0.50900,0.14600,0.48400,0.03900,179.10770,100.00000,0.05578 94 2.04726,-0.61748,-1.58415 -0.83752,0.16650,-0.01758 0.32400,-0.01800,0.05700 2.04726,-0.61748,-1.58415 -0.83752,0.16650,-0.01758 0.32375,-0.02411,0.05823 0.10923,-0.15388,0.04030
06/17/24 13:21:11.259268 0.00000,299.82001,0.10990,-0.19174,0.22100,0.50900,0.14600,0.48400,0.03900,179.10770,100.00000,0.05578 94 1.60651,-0.96880,-1.38613 -0.84265,0.10675,-0.02802 0.31650,0.01350,0.04200 1.60651,-0.96880,-1.38613 -0.84265,0.10675,-0.02802 0.31545,0.00814,0.04889 0.13203,-0.16067,0.01828
06/17/24 13:21:11.303409 0.00000,299.82001,0.10990,-0.19174,0.22100,0.50900,0.14600,0.48400,0.03900,179.10770,100.00000,0.05578 94 2.47524,-0.55893,-1.58522 -0.90765,-0.04956,-0.09772 0.31050,0.04800,0.01950 2.47524,-0.55893,-1.58522 -0.90765,-0.04956,-0.09772 0.31156,0.04627,0.02015 0.18840,-0.11202,-0.10880
06/17/24 13:21:11.347240 0.00000,299.82001,0.10990,-0.19174,0.22100,0.50900,0.14600,0.48400,0.03900,179.10770,100.00000,0.05578 94 2.90215,0.03513,-1.52560 -0.93042,-0.02985,-0.07086 0.31200,0.10050,-0.00300 2.90215,0.03513,-1.52560 -0.93042,-0.02985,-0.07086 0.31374,0.09646,-0.00138 0.19310,-0.08669,-0.01288
06/17/24 13:21:11.391398 0.00000,299.82001,0.10990,-0.19174,0.22100,0.50900,0.14600,0.48400,0.03900,179.10770,100.00000,0.05578 94 3.01500,0.28425,-0.60577 -1.04742,0.02966,0.14209 0.29700,0.12900,-0.02250 3.01500,0.28425,-0.60577 -1.04742,0.02966,0.14209 0.29991,0.11481,-0.01382 -0.01246,0.05137,0.11243
06/17/24 13:21:11.435689 0.00000,299.82001,0.10990,-0.19174,0.22100,0.50900,0.14600,0.48400,0.03900,179.10770,100.00000,0.05578 94 2.53379,-0.26828,0.12775 -1.06201,-0.19763,0.38525 0.28650,0.14100,-0.04500 2.53379,-0.26828,0.12775 -1.06201,-0.19763,0.38525 0.28701,0.14113,-0.04288 -0.23692,0.11371,-0.13737
06/17/24 13:21:11.479288 0.00000,299.82001,0.10990,-0.19174,0.22100,0.50900,0.14600,0.48400,0.03900,179.10770,100.00000,0.05578 94 1.88438,-1.00819,0.55041 -1.03705,-0.15741,0.24786 0.28800,0.14400,-0.07350 1.88438,-1.00819,0.55041 -1.03705,-0.15741,0.24786 0.28342,0.14644,-0.06631 -0.05654,0.06881,-0.12698
06/17/24 13:21:11.523510 0.00000,299.82001,0.10990,-0.19174,0.22100,0.50900,0.14600,0.48400,0.03900,179.10770,100.00000,0.05578 94 0.09156,-0.90280,0.99329 -0.99670,-0.11401,0.23926 0.28950,0.13350,-0.10950 0.09156,-0.90280,0.99329 -0.99670,-0.11401,0.23926 0.28709,0.13938,-0.08793 -0.00428,0.02497,-0.11435
06/17/24 13:21:11.567365 0.00000,299.82001,0.10990,-0.19174,0.22100,0.50900,0.14600,0.48400,0.03900,179.10770,100.00000,0.05578 94 1.59374,-0.24593,-0.18737 -0.98480,-0.13641,0.25421 0.30300,0.12300,-0.11700 1.59374,-0.24593,-0.18737 -0.98480,-0.13641,0.25421 0.30075,0.12503,-0.11116 0.01505,0.01380,-0.15830
06/17/24 13:21:11.611569 0.00000,299.82001,0.10990,-0.19174,0.22100,0.50900,0.14600,0.48400,0.03900,179.10770,100.00000,0.05578 94 2.00894,0.26403,-0.69946 -0.81329,-0.06708,0.19830 0.29850,0.12450,-0.13650 2.00894,0.26403,-0.69946 -0.81329,-0.06708,0.19830 0.29870,0.12134,-0.13071 0.01809,-0.16306,-0.06689
06/17/24 13:21:11.655792 0.00000,299.82001,0.10990,-0.19174,0.22100,0.50900,0.14600,0.48400,0.03900,179.10770,100.00000,0.05578 94 -0.13521,0.15331,-0.21292 -0.94421,-0.14600,0.20868 0.29400,0.12750,-0.13650 -0.13521,0.15331,-0.21292 -0.94421,-0.14600,0.20868 0.29388,0.12687,-0.13696 0.05772,-0.03066,-0.11598
06/17/24 13:21:11.699632 0.00000,299.82001,0.10990,-0.19174,0.22100,0.50900,0.14600,0.48400,0.03900,179.10770,100.00000,0.05578 94 0.29490,0.14053,-0.49292 -1.03644,-0.11945,0.29730 0.28050,0.12900,-0.13800 0.29490,0.14053,-0.49292 -1.03644,-0.11945,0.29730 0.28655,0.13199,-0.14000 -0.02447,0.08055,-0.09314
06/17/24 13:21:11.743829 0.00000,299.82001,0.10990,-0.19174,0.22100,0.50900,0.14600,0.48400,0.03900,179.10770,100.00000,0.05578 94 1.46066,0.33961,-1.11572 -0.92059,-0.12671,0.21680 0.27600,0.13650,-0.13950 1.46066,0.33961,-1.11572 -0.92059,-0.12671,0.21680 0.27811,0.13538,-0.13944 0.02328,-0.04742,-0.05100
06/17/24 13:21:11.787513 0.00000,299.82001,0.10990,-0.19174,0.22100,0.50900,0.14600,0.48400,0.03900,179.10770,100.00000,0.05578 94 2.52102,0.75056,-1.36591 -1.01654,-0.13281,0.16541 0.27000,0.15300,-0.13800 2.52102,0.75056,-1.36591 -1.01654,-0.13281,0.16541 0.27425,0.14711,-0.13904 0.06422,0.03629,0.01798
06/17/24 13:21:11.831932 0.00000,299.82001,0.10990,-0.19174,0.22100,0.50900,0.14600,0.48400,0.03900,179.10770,100.00000,0.05578 94 2.93516,0.88683,-1.33610 -1.18097,-0.04199,0.11145 0.26250,0.17100,-0.15900 2.93516,0.88683,-1.33610 -1.18097,-0.04199,0.11145 0.26862,0.15639,-0.14605 0.02176,0.17278,0.18161
06/17/24 13:21:11.876204 0.00000,299.82001,0.10990,-0.19174,0.22100,0.50900,0.14600,0.48400,0.03900,179.10770,100.00000,0.05578 94 1.83647,0.83253,-1.01458 -1.11395,-0.05066,0.12634 0.24450,0.18900,-0.17250 1.83647,0.83253,-1.01458 -1.11395,-0.05066,0.12634 0.25201,0.17718,-0.16340 -0.04752,0.10990,0.15900
06/17/24 13:21:11.920122 0.00000,299.82001,0.10990,-0.19174,0.22100,0.50900,0.14600,0.48400,0.03900,179.10770,100.00000,0.05578 94 1.82263,0.69839,-0.60470 -1.11719,-0.12781,0.20605 0.24300,0.19950,-0.18450 1.82263,0.69839,-0.60470 -1.11719,-0.12781,0.20605 0.24133,0.19528,-0.17869 -0.08608,0.13893,0.04823
06/17/24 13:21:11.964382 0.00000,299.82001,0.10990,-0.19174,0.22100,0.50900,0.14600,0.48400,0.03900,179.10770,100.00000,0.05578 94 2.51676,0.53976,-0.28106 -1.11859,-0.14453,0.13629 0.22800,0.19800,-0.19650 2.51676,0.53976,-0.28106 -1.11859,-0.14453,0.13629 0.23428,0.19918,-0.18767 -0.04120,0.13228,0.08343
06/17/24 13:21:12.008128 0.00000,299.82001,0.10990,-0.19174,0.22100,0.50900,0.14600,0.48400,0.03900,179.10770,100.00000,0.05578 94 2.18992,0.50569,0.10220 -1.01740,-0.14203,0.16492 0.22350,0.19350,-0.22200 2.18992,0.50569,0.10220 -1.01740,-0.14203,0.16492 0.22859,0.19432,-0.20824 -0.04532,0.03916,0.02365
06/17/24 13:21:12.052633 0.00000,299.82001,0.10990,-0.19174,0.22100,0.50900,0.14600,0.48400,0.03900,179.10770,100.00000,0.05578 94 1.99403,0.44608,-0.08943 -0.96625,-0.17529,0.22308 0.23850,0.18450,-0.23100 1.99403,0.44608,-0.08943 -0.96625,-0.17529,0.22308 0.23525,0.18525,-0.22571 -0.03599,0.00613,-0.02304
06/17/24 13:21:12.096967 0.00000,299.82001,0.10990,-0.19174,0.22100,0.50900,0.14600,0.48400,0.03900,179.10770,100.00000,0.05578 94 3.00116,0.41201,-0.14372 -0.98163,-0.18542,0.18219 0.23100,0.15900,-0.25050 3.00116,0.41201,-0.14372 -0.98163,-0.18542,0.18219 0.23295,0.17100,-0.24011 0.00517,0.01532,0.01630
06/17/24 13:21:12.140886 0.00000,299.82001,0.10990,-0.19174,0.22100,0.50900,0.14600,0.48400,0.03900,179.10770,100.00000,0.05578 94 2.55828,0.20547,-0.05962 -0.94250,-0.17938,0.20404 0.22800,0.15150,-0.28050 2.55828,0.20547,-0.05962 -0.94250,-0.17938,0.20404 0.23089,0.15779,-0.26541 0.00688,-0.01922,0.01246
06/17/24 13:21:12.185148 0.00000,299.82001,0.10990,-0.19174,0.22100,0.50900,0.14600,0.48400,0.03900,179.10770,100.00000,0.05578 94 0.32152,-0.28638,0.38752 -0.94055,-0.10596,0.16425 0.23400,0.13650,-0.30000 0.32152,-0.28638,0.38752 -0.94055,-0.10596,0.16425 0.23246,0.13562,-0.29392 -0.04867,-0.04588,0.10067
06/17/24 13:21:12.228906 0.00000,299.82001,0.10990,-0.19174,0.22100,0.50900,0.14600,0.48400,0.03900,179.10770,100.00000,0.05578 94 -0.78569,-0.53231,0.58873 -0.90930,-0.07318,0.20062 0.22800,0.12150,-0.29850 -0.78569,-0.53231,0.58873 -0.90930,-0.07318,0.20062 0.23082,0.12400,-0.29977 -0.06615,-0.07254,0.08876
06/17/24 13:21:12.273417 0.00000,299.82001,0.10990,-0.19174,0.22100,0.50900,0.14600,0.48400,0.03900,179.10770,100.00000,0.05578 94 0.24167,-0.37155,0.69413 -1.03381,-0.07513,0.21100 0.23400,0.12150,-0.30450 0.24167,-0.37155,0.69413 -1.03381,-0.07513,0.21100 0.23202,0.12219,-0.30514 -0.04922,0.04670,0.14468
06/17/24 13:21:12.317747 0.00000,299.82001,0.10990,-0.19174,0.22100,0.50900,0.14600,0.48400,0.03900,179.10770,100.00000,0.05578 94 -0.37794,-0.43649,0.99435 -1.06042,-0.08423,0.22748 0.23400,0.10050,-0.30750 -0.37794,-0.43649,0.99435 -1.06042,-0.08423,0.22748 0.23307,0.11111,-0.30622 0.00150,0.07797,0.14603
06/17/24 13:21:12.361487 0.00000,299.82001,0.10990,-0.19174,0.22100,0.50900,0.14600,0.48400,0.03900,179.10770,100.00000,0.05578 94 -0.54934,-0.34707,0.76333 -1.00580,-0.08148,0.16656 0.24000,0.09900,-0.31500 -0.54934,-0.34707,0.76333 -1.00580,-0.08148,0.16656 0.23751,0.10311,-0.31282 0.05033,0.00462,0.18496
06/17/24 13:21:12.406019 0.00000,299.82001,0.10990,-0.19174,0.22100,0.50900,0.14600,0.48400,0.03900,179.10770,100.00000,0.05578 94 0.20121,0.71436,0.45033 -0.93652,-0.03253,0.16522 0.24750,0.09450,-0.31350 0.20121,0.71436,0.45033 -0.93652,-0.03253,0.16522 0.24306,0.09381,-0.31444 0.02872,-0.06250,0.16029
06/17/24 13:21:12.449798 0.00000,299.82001,0.10990,-0.19174,0.22100,0.50900,0.14600,0.48400,0.03900,179.10770,100.00000,0.05578 94 1.42765,1.04759,-1.20941 -0.95001,0.05597,0.09003 0.25650,0.07950,-0.30300 1.42765,1.04759,-1.20941 -0.95001,0.05597,0.09003 0.25361,0.08207,-0.30521 -0.07218,-0.07435,0.22741
06/17/24 13:21:12.494275 0.00000,299.82001,0.10990,-0.19174,0.22100,0.50900,0.14600,0.48400,0.03900,179.10770,100.00000,0.05578 94 0.46843,0.91877,-0.37900 -0.97821,-0.00085,0.11835 0.25800,0.08550,-0.29700 0.46843,0.91877,-0.37900 -0.97821,-0.00085,0.11835 0.25632,0.08897,-0.29879 -0.04492,-0.02983,0.16632
06/17/24 13:21:12.538561 0.00000,299.82001,0.10990,-0.19174,0.22100,0.50900,0.14600,0.48400,0.03900,179.10770,100.00000,0.05578 94 -0.19163,0.69200,-0.58235 -0.74976,0.05511,0.12598 0.25650,0.09300,-0.28800 -0.19163,0.69200,-0.58235 -0.74976,0.05511,0.12598 0.25714,0.09264,-0.29054 -0.11610,-0.25126,0.08335
06/17/24 13:21:12.582310 0.00000,299.82001,0.10990,-0.19174,0.22100,0.50900,0.14600,0.48400,0.03900,179.10770,100.00000,0.05578 94 -1.48302,0.25657,-0.65155 -0.70740,0.06238,0.10272 0.25800,0.11100,-0.28350 -1.48302,0.25657,-0.65155 -0.70740,0.06238,0.10272 0.25822,0.10980,-0.28432 -0.13928,-0.30164,0.08804
06/17/24 13:21:12.626819 0.00000,299.82001,0.10990,-0.19174,0.22100,0.50900,0.14600,0.48400,0.03900,179.10770,100.00000,0.05578 94 -2.08772,0.16182,-0.83786 -0.73578,0.03827,0.12103 0.25800,0.13350,-0.26250 -2.08772,0.16182,-0.83786 -0.73578,0.03827,0.12103 0.25837,0.12921,-0.26385 -0.15985,-0.27510,0.08031
06/17/24 13:21:12.670598 0.00000,299.82001,0.10990,-0.19174,0.22100,0.50900,0.14600,0.48400,0.03900,179.10770,100.00000,0.05578 94 -1.61290,0.00106,0.04471 -0.78101,-0.09857,0.13269 0.24600,0.15300,-0.24600 -1.61290,0.00106,0.04471 -0.78101,-0.09857,0.13269 0.24846,0.14884,-0.24852 -0.06585,-0.20535,0.03858
06/17/24 13:21:12.715136 0.00000,299.82001,0.10990,-0.19174,0.22100,0.50900,0.14600,0.48400,0.03900,179.10770,100.00000,0.05578 94 -4.28296,-0.86554,1.51176 -1.08008,-0.05640,0.17816 0.24600,0.16800,-0.21600 -4.28296,-0.86554,1.51176 -1.08008,-0.05640,0.17816 0.24739,0.16571,-0.22078 -0.14183,0.08276,0.09488
06/17/24 13:21:12.759514 0.00000,299.82001,0.10990,-0.19174,0.22100,0.50900,0.14600,0.48400,0.03900,179.10770,100.00000,0.05578 94 -6.16308,-1.58415,2.19099 -1.60974,-0.27441,-0.01056 0.25950,0.15000,-0.18900 -6.16308,-1.58415,2.19099 -1.60974,-0.27441,-0.01056 0.25614,0.15418,-0.19587 0.22115,0.60375,0.21393
06/17/24 13:21:12.803239 0.00000,299.82001,0.10990,-0.19174,0.22100,0.50900,0.14600,0.48400,0.03900,179.10770,100.00000,0.05578 94 -6.60596,-0.71010,1.64697 -1.02600,-0.20520,0.09668 0.27450,0.12750,-0.15150 -6.60596,-0.71010,1.64697 -1.02600,-0.20520,0.09668 0.27462,0.12928,-0.15353 0.12156,0.04372,-0.00255
06/17/24 13:21:12.847711 0.00000,299.82001,0.10990,-0.19174,0.22100,0.50900,0.14600,0.48400,0.03900,179.10770,100.00000,0.05578 94 -0.48440,1.33397,1.20621 -1.03015,-0.29449,0.27551 0.29250,0.10950,-0.10950 -0.48440,1.33397,1.20621 -1.03015,-0.29449,0.27551 0.29011,0.11278,-0.11330 -0.04803,0.08403,-0.21546
06/17/24 13:21:12.892057 0.00000,299.82001,0.10990,-0.19174,0.22100,0.50900,0.14600,0.48400,0.03900,179.10770,100.00000,0.05578 94 6.89022,1.93761,-1.50963 -1.13831,-0.29517,0.20441 0.29550,0.10050,-0.10050 6.89022,1.93761,-1.50963 -1.13831,-0.29517,0.20441 0.29506,0.10042,-0.10032 0.00550,0.17408,-0.21481
06/17/24 13:21:12.936044 0.00000,299.82001,0.10990,-0.19174,0.22100,0.50900,0.14600,0.48400,0.03900,179.10770,100.00000,0.05578 94 10.72072,1.75236,-2.77653 -1.15875,-0.33838,0.16833 0.28350,0.14700,-0.13950 10.72072,1.75236,-2.77653 -1.15875,-0.33838,0.16833 0.28645,0.13215,-0.12375 0.06430,0.20477,-0.17305
06/17/24 13:21:12.980326 0.00000,299.82001,0.10990,-0.19174,0.22100,0.50900,0.14600,0.48400,0.03900,179.10770,100.00000,0.05578 94 4.83231,-0.02874,-4.34365 -1.25854,0.38013,-0.16144 0.25800,0.16350,-0.21000 4.83231,-0.02874,-4.34365 -1.25854,0.38013,-0.16144 0.26166,0.16156,-0.20016 -0.63334,0.08122,0.42935
06/17/24 13:21:13.024051 0.00000,299.82001,0.10990,-0.19174,0.22100,0.50900,0.14600,0.48400,0.03900,179.10770,100.00000,0.05578 94 -12.12069,-3.46640,1.90248 -1.08728,0.41779,-0.02362 0.22500,0.21150,-0.21900 -12.12069,-3.46640,1.90248 -1.08728,0.41779,-0.02362 0.22648,0.20887,-0.22149 -0.60508,-0.14412,0.50856
06/17/24 13:21:13.068492 0.00000,299.82001,0.10990,-0.19174,0.22100,0.50900,0.14600,0.48400,0.03900,179.10770,100.00000,0.05578 94 -1.23496,-1.78643,1.64803 -1.17090,-0.39630,0.12268 0.23250,0.23100,-0.14100 -1.23496,-1.78643,1.64803 -1.17090,-0.39630,0.12268 0.22508,0.22923,-0.16817 -0.01170,0.24216,0.00458
06/17/24 13:21:13.112736 0.00000,299.82001,0.10990,-0.19174,0.22100,0.50900,0.14600,0.48400,0.03900,179.10770,100.00000,0.05578 94 6.52718,-0.65368,0.37049 -0.73022,0.34027,-0.55469 0.25050,0.20250,-0.17400 6.52718,-0.65368,0.37049 -0.73022,0.34027,-0.55469 0.24792,0.20589,-0.16769 0.04643,-0.47806,0.82590
06/17/24 13:21:13.156402 0.00000,299.82001,0.10990,-0.19174,0.22100,0.50900,0.14600,0.48400,0.03900,179.10770,100.00000,0.05578 94 -2.08985,-0.68136,-3.08101 -0.59753,-1.10022,-0.44238 0.27300,0.13950,-0.22350 -2.08985,-0.68136,-3.08101 -0.59753,-1.10022,-0.44238 0.27145,0.14342,-0.22220 1.14399,-0.34285,-0.15061
06/17/24 13:21:13.200837 0.00000,299.82001,0.10990,-0.19174,0.22100,0.50900,0.14600,0.48400,0.03900,179.10770,100.00000,0.05578 94 -1.37868,-1.07633,-0.36623 -0.52344,0.19495,0.64893 0.27150,0.15450,-0.20250 -1.37868,-1.07633,-0.36623 -0.52344,0.19495,0.64893 0.27012,0.15432,-0.20488 -0.57557,-0.39034,-0.17358
06/17/24 13:21:13.244497 0.00000,299.82001,0.10990,-0.19174,0.22100,0.50900,0.14600,0.48400,0.03900,179.10770,100.00000,0.05578 94 -0.89002,-1.85457,1.74491 -1.05334,0.18414,0.69684 0.26550,0.15300,-0.21900 -0.89002,-1.85457,1.74491 -1.05334,0.18414,0.69684 0.26604,0.15288,-0.21698 -0.49285,0.17648,-0.04492
06/17/24 13:21:13.288918 0.00000,299.82001,0.10990,-0.19174,0.22100,0.50900,0.14600,0.48400,0.03900,179.10770,100.00000,0.05578 94 0.97306,-2.61683,0.73139 -0.71893,0.19666,0.28699 0.27000,0.13350,-0.25650 0.97306,-2.61683,0.73139 -0.71893,0.19666,0.28699 0.27091,0.13415,-0.25136 -0.17496,-0.24245,0.18279
06/17/24 13:21:13.333222 0.00000,299.82001,0.10990,-0.19174,0.22100,0.50900,0.14600,0.48400,0.03900,179.10770,100.00000,0.05578 94 2.50824,-3.52921,1.53412 -0.98199,0.15131,0.73022 0.25050,0.10050,-0.30000 2.50824,-3.52921,1.53412 -0.98199,0.15131,0.73022 0.25497,0.10437,-0.28918 -0.19094,0.21808,-0.01613
06/17/24 13:21:13.376997 0.00000,299.82001,0.10990,-0.19174,0.22100,0.50900,0.14600,0.48400,0.03900,179.10770,100.00000,0.05578 94 -0.43436,-3.49195,1.45214 -1.00006,-0.19446,0.76862 0.23550,0.06300,-0.36750 -0.43436,-3.49195,1.45214 -1.00006,-0.19446,0.76862 0.23587,0.06482,-0.36413 0.26306,0.23597,-0.17858
06/17/24 13:21:13.421470 0.00000,299.82001,0.10990,-0.19174,0.22100,0.50900,0.14600,0.48400,0.03900,179.10770,100.00000,0.05578 94 -0.99223,-3.31629,2.17502 -0.66425,-0.07495,0.58319 0.20100,0.05550,-0.41700 -0.99223,-3.31629,2.17502 -0.66425,-0.07495,0.58319 0.20421,0.05362,-0.41316 0.18734,-0.13448,-0.05229
06/17/24 13:21:13.465155 0.00000,299.82001,0.10990,-0.19174,0.22100,0.50900,0.14600,0.48400,0.03900,179.10770,100.00000,0.05578 94 -1.81198,-2.85212,1.92164 -0.59424,-0.28296,0.68555 0.16350,0.03600,-0.45600 -1.81198,-2.85212,1.92164 -0.59424,-0.28296,0.68555 0.16530,0.03598,-0.45311 0.32623,-0.14033,-0.24022
06/17/24 13:21:13.509448 0.00000,299.82001,0.10990,-0.19174,0.22100,0.50900,0.14600,0.48400,0.03900,179.10770,100.00000,0.05578 94 -2.92451,-2.00255,0.90386 -0.78528,0.03412,0.76514 0.13650,0.04500,-0.46200 -2.92451,-2.00255,0.90386 -0.78528,0.03412,0.76514 0.13773,0.04471,-0.46242 0.29368,0.04303,0.17058
06/17/24 13:21:13.553814 0.00000,299.82001,0.10990,-0.19174,0.22100,0.50900,0.14600,0.48400,0.03900,179.10770,100.00000,0.05578 94 -3.75598,-1.23176,0.86979 -0.46796,0.28241,0.93805 0.11250,0.08700,-0.46350 -3.75598,-1.23176,0.86979 -0.46796,0.28241,0.93805 0.11357,0.08489,-0.46521 -0.11705,0.02293,0.34435
06/17/24 13:21:13.597464 0.00000,299.82001,0.10990,-0.19174,0.22100,0.50900,0.14600,0.48400,0.03900,179.10770,100.00000,0.05578 94 -5.14850,-1.33077,-0.35771 -0.24982,-0.02350,0.66943 0.09900,0.14850,-0.44100 -5.14850,-1.33077,-0.35771 -0.24982,-0.02350,0.66943 0.10025,0.14210,-0.44382 -0.05961,-0.29932,0.12883
06/17/24 13:21:13.641896 0.00000,299.82001,0.10990,-0.19174,0.22100,0.50900,0.14600,0.48400,0.03900,179.10770,100.00000,0.05578 94 -4.64600,-1.39678,-0.76014 -0.49908,-0.41998,0.76501 0.07650,0.22350,-0.38250 -4.64600,-1.39678,-0.76014 -0.49908,-0.41998,0.76501 0.07894,0.21880,-0.39177 0.20932,-0.01901,0.06754
06/17/24 13:21:13.685566 0.00000,299.82001,0.10990,-0.19174,0.22100,0.50900,0.14600,0.48400,0.03900,179.10770,100.00000,0.05578 94 -3.33971,-0.67923,-0.24699 -0.34021,-0.55365,0.59235 0.05700,0.27450,-0.33300 -3.33971,-0.67923,-0.24699 -0.34021,-0.55365,0.59235 0.05965,0.26893,-0.33947 0.15391,-0.13460,-0.02325
06/17/24 13:21:13.729744 0.00000,299.82001,0.10990,-0.19174,0.22100,0.50900,0.14600,0.48400,0.03900,179.10770,100.00000,0.05578 94 -0.54934,-0.66113,0.14053 -0.52264,-0.49298,0.71051 0.05400,0.29400,-0.30750 -0.54934,-0.66113,0.14053 -0.52264,-0.49298,0.71051 0.05390,0.29323,-0.30771 0.23777,-0.03534,0.18417
06/17/24 13:21:13.774214 0.00000,299.82001,0.10990,-0.19174,0.22100,0.50900,0.14600,0.48400,0.03900,179.10770,100.00000,0.05578 94 -3.04268,-0.85702,0.02981 0.03125,-0.12280,1.18213 0.05250,0.29700,-0.29700 -3.04268,-0.85702,0.02981 0.03125,-0.12280,1.18213 0.04937,0.29588,-0.29688 -0.51230,-0.04928,0.49715
06/17/24 13:21:13.817963 0.00000,299.82001,0.10990,-0.19174,0.22100,0.50900,0.14600,0.48400,0.03900,179.10770,100.00000,0.05578 94 -1.60758,-0.97626,1.52986 0.53796,-0.88049,0.77112 0.04500,0.30450,-0.28650 -1.60758,-0.97626,1.52986 0.53796,-0.88049,0.77112 0.04490,0.30491,-0.28597 -0.68948,-0.00845,-0.44805
06/17/24 13:21:13.862417 0.00000,299.82001,0.10990,-0.19174,0.22100,0.50900,0.14600,0.48400,0.03900,179.10770,100.00000,0.05578 94 0.40030,-0.86234,-1.84499 -0.21173,-0.85187,1.39569 0.04350,0.30900,-0.26850 0.40030,-0.86234,-1.84499 -0.21173,-0.85187,1.39569 0.04680,0.30776,-0.26844 -0.16057,0.62840,0.20247
06/17/24 13:21:13.906749 0.00000,299.82001,0.10990,-0.19174,0.22100,0.50900,0.14600,0.48400,0.03900,179.10770,100.00000,0.05578 94 2.99797,-0.87086,-0.61535 0.08551,-0.45850,0.91650 0.01650,0.31200,-0.30600 2.99797,-0.87086,-0.61535 0.08551,-0.45850,0.91650 0.01871,0.31253,-0.29909 -0.24310,-0.00274,0.06233
06/17/24 13:21:13.950543 0.00000,299.82001,0.10990,-0.19174,0.22100,0.50900,0.14600,0.48400,0.03900,179.10770,100.00000,0.05578 94 0.28319,-0.83040,0.58767 -0.26141,-0.27075,0.69568 -0.00600,0.29100,-0.34650 0.28319,-0.83040,0.58767 -0.26141,-0.27075,0.69568 -0.00466,0.29148,-0.34547 0.15211,-0.24144,0.16451
06/17/24 13:21:13.994951 0.00000,299.82001,0.10990,-0.19174,0.22100,0.50900,0.14600,0.48400,0.03900,179.10770,100.00000,0.05578 94 -1.34461,-0.45246,-0.50569 -0.06909,-0.54559,0.74493 -0.01350,0.29400,-0.33600 -1.34461,-0.45246,-0.50569 -0.06909,-0.54559,0.74493 -0.01108,0.29154,-0.34018 0.04777,-0.07662,-0.04963
06/17/24 13:21:14.038550 0.00000,299.82001,0.10990,-0.19174,0.22100,0.50900,0.14600,0.48400,0.03900,179.10770,100.00000,0.05578 94 0.03194,-0.02555,-0.26615 0.27460,-0.72589,0.66370 -0.02400,0.30900,-0.31950 0.03194,-0.02555,-0.26615 0.27460,-0.72589,0.66370 -0.02246,0.30806,-0.32043 -0.19677,-0.05072,-0.32087
06/17/24 13:21:14.082724 0.00000,299.82001,0.10990,-0.19174,0.22100,0.50900,0.14600,0.48400,0.03900,179.10770,100.00000,0.05578 94 3.07356,0.01703,-1.84179 0.16571,-0.62811,0.88251 -0.03300,0.30450,-0.32850 3.07356,0.01703,-1.84179 0.16571,-0.62811,0.88251 -0.03170,0.30503,-0.32767 -0.09572,0.07914,-0.16462
06/17/24 13:21:14.127087 0.00000,299.82001,0.10990,-0.19174,0.22100,0.50900,0.14600,0.48400,0.03900,179.10770,100.00000,0.05578 94 4.40859,1.27861,-1.21367 -0.15424,-0.38568,1.03082 -0.05400,0.26550,-0.39750 4.40859,1.27861,-1.21367 -0.15424,-0.38568,1.03082 -0.05258,0.26990,-0.38903 0.15687,0.09936,0.04399
06/17/24 13:21:14.170723 0.00000,299.82001,0.10990,-0.19174,0.22100,0.50900,0.14600,0.48400,0.03900,179.10770,100.00000,0.05578 94 1.88438,0.18950,-0.45992 -0.41864,0.00897,0.52881 -0.05250,0.22050,-0.44550 1.88438,0.18950,-0.45992 -0.41864,0.00897,0.52881 -0.05260,0.22353,-0.44292 0.30929,-0.47529,0.28983
06/17/24 13:21:14.215008 0.00000,299.82001,0.10990,-0.19174,0.22100,0.50900,0.14600,0.48400,0.03900,179.10770,100.00000,0.05578 94 0.24912,-0.10966,-0.36729 0.05164,-0.21405,0.99121 -0.06750,0.19500,-0.45750 0.24912,-0.10966,-0.36729 0.05164,-0.21405,0.99121 -0.06229,0.20124,-0.45798 -0.03746,0.01189,-0.07520
06/17/24 13:21:14.258538 0.00000,299.82001,0.10990,-0.19174,0.22100,0.50900,0.14600,0.48400,0.03900,179.10770,100.00000,0.05578 94 0.64516,0.00639,-0.35558 0.04822,-0.12622,0.99634 -0.06600,0.19650,-0.46050 0.64516,0.00639,-0.35558 0.04822,-0.12622,0.99634 -0.06927,0.19637,-0.45934 -0.05627,0.00369,-0.01974
06/17/24 13:21:14.302660 0.00000,299.82001,0.10990,-0.19174,0.22100,0.50900,0.14600,0.48400,0.03900,179.10770,100.00000,0.05578 94 0.49505,0.03194,-0.26509 -0.12018,-0.12097,0.90210 -0.07350,0.17850,-0.46950 0.49505,0.03194,-0.26509 -0.12018,-0.12097,0.90210 -0.07275,0.18235,-0.46720 0.11199,-0.08968,0.04043
06/17/24 13:21:14.347009 0.00000,299.82001,0.10990,-0.19174,0.22100,0.50900,0.14600,0.48400,0.03900,179.10770,100.00000,0.05578 94 0.02129,0.25338,0.44395 -0.36615,0.01276,0.93866 -0.07950,0.17700,-0.47400 0.02129,0.25338,0.44395 -0.36615,0.01276,0.93866 -0.07652,0.17788,-0.47240 0.23370,-0.05772,0.26984
06/17/24 13:21:14.390681 0.00000,299.82001,0.10990,-0.19174,0.22100,0.50900,0.14600,0.48400,0.03900,179.10770,100.00000,0.05578 94 -0.30555,0.00852,-0.17034 0.24945,-0.18280,1.04022 -0.05850,0.18900,-0.46950 -0.30555,0.00852,-0.17034 0.24945,-0.18280,1.04022 -0.05888,0.18890,-0.46983 -0.23779,0.03728,-0.21265
06/17/24 13:21:14.434837 0.00000,299.82001,0.10990,-0.19174,0.22100,0.50900,0.14600,0.48400,0.03900,179.10770,100.00000,0.05578 94 0.03939,-0.01384,-0.28319 -0.00574,-0.16199,1.01508 -0.05400,0.18900,-0.46800 0.03939,-0.01384,-0.28319 -0.00574,-0.16199,1.01508 -0.05320,0.18874,-0.46570 -0.02112,0.02559,-0.06616
06/17/24 13:21:14.478594 0.00000,299.82001,0.10990,-0.19174,0.22100,0.50900,0.14600,0.48400,0.03900,179.10770,100.00000,0.05578 94 0.10433,-0.00213,-0.14692 -0.01892,-0.18341,0.96820 -0.05550,0.19200,-0.47100 0.10433,-0.00213,-0.14692 -0.01892,-0.18341,0.96820 -0.06012,0.18895,-0.46775 0.00969,-0.01760,-0.07872
06/17/24 13:21:14.522761 0.00000,299.82001,0.10990,-0.19174,0.22100,0.50900,0.14600,0.48400,0.03900,179.10770,100.00000,0.05578 94 0.15118,0.07026,-0.06814 0.02026,-0.16248,0.98071 -0.06600,0.18000,-0.46950 0.15118,0.07026,-0.06814 0.02026,-0.16248,0.98071 -0.06215,0.18728,-0.46784 -0.03853,-0.00977,-0.08106
06/17/24 13:21:14.567077 0.00000,299.82001,0.10990,-0.19174,0.22100,0.50900,0.14600,0.48400,0.03900,179.10770,100.00000,0.05578 94 0.10220,0.04471,-0.02768 -0.02710,-0.09546,0.96948 -0.05850,0.18150,-0.46500 0.10220,0.04471,-0.02768 -0.02710,-0.09546,0.96948 -0.06266,0.18188,-0.46675 -0.03194,-0.02599,-0.00516
06/17/24 13:21:14.610695 0.00000,299.82001,0.10990,-0.19174,0.22100,0.50900,0.14600,0.48400,0.03900,179.10770,100.00000,0.05578 94 0.06814,0.02555,-0.01810 -0.01190,-0.17950,0.98175 -0.05550,0.18000,-0.47100 0.06814,0.02555,-0.01810 -0.01190,-0.17950,0.98175 -0.06231,0.18179,-0.46708 -0.00179,-0.00570,-0.08698
06/17/24 13:21:14.654889 0.00000,299.82001,0.10990,-0.19174,0.22100,0.50900,0.14600,0.48400,0.03900,179.10770,100.00000,0.05578 94 0.07452,0.03087,-0.05536 -0.02185,-0.15503,0.97156 -0.06150,0.17550,-0.47100 0.07452,0.03087,-0.05536 -0.02185,-0.15503,0.97156 -0.06176,0.18028,-0.46907 -0.00426,-0.01809,-0.06541
06/17/24 13:21:14.698718 0.00000,299.82001,0.10990,-0.19174,0.22100,0.50900,0.14600,0.48400,0.03900,179.10770,100.00000,0.05578 94 -0.01810,0.01171,-0.03407 -0.02509,-0.13373,0.95746 -0.06300,0.17100,-0.47550 -0.01810,0.01171,-0.03407 -0.02509,-0.13373,0.95746 -0.06247,0.17956,-0.47025 -0.01131,-0.03413,-0.04706
06/17/24 13:21:14.742951 0.00000,299.82001,0.10990,-0.19174,0.22100,0.50900,0.14600,0.48400,0.03900,179.10770,100.00000,0.05578 94 0.01171,0.04046,-0.05642 0.00421,-0.12769,0.94965 -0.05400,0.18000,-0.47550 0.01171,0.04046,-0.05642 0.00421,-0.12769,0.94965 -0.06053,0.17885,-0.47228 -0.03823,-0.04431,-0.05785
06/17/24 13:21:14.787141 0.00000,299.82001,0.10990,-0.19174,0.22100,0.50900,0.14600,0.48400,0.03900,179.10770,100.00000,0.05578 94 0.02768,0.08304,0.03833 -0.03174,-0.12848,0.99390 -0.06750,0.18000,-0.47550 0.02768,0.08304,0.03833 -0.03174,-0.12848,0.99390 -0.06060,0.17879,-0.47205 -0.01325,0.00190,-0.03689
06/17/24 13:21:14.830918 0.00000,299.82001,0.10990,-0.19174,0.22100,0.50900,0.14600,0.48400,0.03900,179.10770,100.00000,0.05578 94 0.03087,0.08304,0.10220 -0.04358,-0.11353,0.98486 -0.06000,0.16800,-0.47100 0.03087,0.08304,0.10220 -0.04358,-0.11353,0.98486 -0.06050,0.17831,-0.47212 -0.01062,-0.00793,-0.02081
06/17/24 13:21:14.875122 0.00000,299.82001,0.10990,-0.19174,0.22100,0.50900,0.14600,0.48400,0.03900,179.10770,100.00000,0.05578 94 0.02874,0.00958,0.10540 -0.03461,-0.13452,1.00653 -0.06000,0.18000,-0.47100 0.02874,0.00958,0.10540 -0.03461,-0.13452,1.00653 -0.06011,0.17822,-0.47206 -0.00998,0.01508,-0.04365
06/17/24 13:21:14.919487 0.00000,299.82001,0.10990,-0.19174,0.22100,0.50900,0.14600,0.48400,0.03900,179.10770,100.00000,0.05578 94 0.08410,-0.03087,0.02981 -0.01959,-0.12195,0.95538 -0.05850,0.17400,-0.47550 0.08410,-0.03087,0.02981 -0.01959,-0.12195,0.95538 -0.06004,0.17821,-0.47215 -0.01995,-0.03790,-0.04442
06/17/24 13:21:14.963111 0.00000,299.82001,0.10990,-0.19174,0.22100,0.50900,0.14600,0.48400,0.03900,179.10770,100.00000,0.05578 94 -0.02236,-0.05536,0.10114 -0.05359,-0.12109,0.95581 -0.05700,0.17850,-0.47100 -0.02236,-0.05536,0.10114 -0.05359,-0.12109,0.95581 -0.05985,0.17831,-0.47239 0.01115,-0.03543,-0.02437
06/17/24 13:21:15.007347 0.00000,299.82001,0.10990,-0.19174,0.22100,0.50900,0.14600,0.48400,0.03900,179.10770,100.00000,0.05578 94 -0.05323,-0.03407,0.17566 -0.01874,-0.11530,0.98383 -0.05700,0.17700,-0.47550 -0.05323,-0.03407,0.17566 -0.01874,-0.11530,0.98383 -0.05918,0.17571,-0.47248 -0.02315,-0.01014,-0.03458
06/17/24 13:21:15.051158 0.00000,299.82001,0.10990,-0.19174,0.22100,0.50900,0.14600,0.48400,0.03900,179.10770,100.00000,0.05578 94 0.00213,-0.05004,0.15331 -0.02423,-0.12616,0.94989 -0.05700,0.17550,-0.46950 0.00213,-0.05004,0.15331 -0.02423,-0.12616,0.94989 -0.05616,0.17722,-0.47341 -0.00646,-0.04243,-0.04266
06/17/24 13:21:15.095359 0.00000,299.82001,0.10990,-0.19174,0.22100,0.50900,0.14600,0.48400,0.03900,179.10770,100.00000,0.05578 94 -0.11817,0.01065,0.23847 0.00537,-0.15674,1.00269 -0.05700,0.18000,-0.48150 -0.11817,0.01065,0.23847 0.00537,-0.15674,1.00269 -0.05612,0.17734,-0.47362 -0.02067,0.01156,-0.07931
06/17/24 13:21:15.139561 0.00000,299.82001,0.10990,-0.19174,0.22100,0.50900,0.14600,0.48400,0.03900,179.10770,100.00000,0.05578 94 0.03407,0.05855,0.20547 -0.00934,-0.18561,0.99640 -0.04950,0.17850,-0.47400 0.03407,0.05855,0.20547 -0.00934,-0.18561,0.99640 -0.05593,0.17732,-0.47351 0.00458,0.00888,-0.09741
06/17/24 13:21:15.183337 0.00000,299.82001,0.10990,-0.19174,0.22100,0.50900,0.14600,0.48400,0.03900,179.10770,100.00000,0.05578 94 -0.02768,0.02342,0.20547 -0.04590,-0.13531,0.96576 -0.04950,0.17550,-0.47550 -0.02768,0.02342,0.20547 -0.04590,-0.13531,0.96576 -0.05535,0.17741,-0.47362 0.01404,-0.02466,-0.04031
06/17/24 13:21:15.227520 0.00000,299.82001,0.10990,-0.19174,0.22100,0.50900,0.14600,0.48400,0.03900,179.10770,100.00000,0.05578 94 -0.02129,-0.01278,0.11711 0.05994,-0.12537,0.99170 -0.04650,0.18000,-0.46800 -0.02129,-0.01278,0.11711 0.05994,-0.12537,0.99170 -0.04984,0.17900,-0.47011 -0.08347,-0.00552,-0.08261
06/17/24 13:21:15.271108 0.00000,299.82001,0.10990,-0.19174,0.22100,0.50900,0.14600,0.48400,0.03900,179.10770,100.00000,0.05578 94 -0.02236,-0.05323,0.00639 -0.02118,-0.15112,0.96277 -0.04650,0.16650,-0.47100 -0.02236,-0.05323,0.00639 -0.02118,-0.15112,0.96277 -0.04701,0.16969,-0.47107 0.00856,-0.02731,-0.06327
06/17/24 13:21:15.315347 0.00000,299.82001,0.10990,-0.19174,0.22100,0.50900,0.14600,0.48400,0.03900,179.10770,100.00000,0.05578 94 -0.04791,0.03194,0.10114 -0.02930,-0.13641,0.97699 -0.04500,0.17850,-0.47250 -0.04791,0.03194,0.10114 -0.02930,-0.13641,0.97699 -0.04673,0.17006,-0.47127 0.01117,-0.01413,-0.04380
06/17/24 13:21:15.359381 0.00000,299.82001,0.10990,-0.19174,0.22100,0.50900,0.14600,0.48400,0.03900,179.10770,100.00000,0.05578 94 -0.05004,0.02449,0.05536 -0.02515,-0.14337,0.99823 -0.04350,0.17550,-0.46800 -0.05004,0.02449,0.05536 -0.02515,-0.14337,0.99823 -0.04642,0.17028,-0.47111 0.00996,0.00753,-0.04933
06/17/24 13:21:15.403025 0.00000,299.82001,0.10990,-0.19174,0.22100,0.50900,0.14600,0.48400,0.03900,179.10770,100.00000,0.05578 94 0.02023,0.04897,0.07346 -0.02106,-0.15411,0.99023 -0.04200,0.17850,-0.47400 0.02023,0.04897,0.07346 -0.02106,-0.15411,0.99023 -0.04607,0.17049,-0.47106 0.01356,0.00039,-0.06160
06/17/24 13:21:15.447095 0.00000,299.82001,0.10990,-0.19174,0.22100,0.50900,0.14600,0.48400,0.03900,179.10770,100.00000,0.05578 94 0.05004,0.04152,0.02449 -0.01740,-0.13373,0.95026 -0.04200,0.17700,-0.46500 0.05004,0.04152,0.02449 -0.01740,-0.13373,0.95026 -0.04531,0.17187,-0.47096 0.00482,-0.04154,-0.05005
06/17/24 13:21:15.490619 0.00000,299.82001,0.10990,-0.19174,0.22100,0.50900,0.14600,0.48400,0.03900,179.10770,100.00000,0.05578 94 -0.06920,-0.03833,-0.04684 -0.04877,-0.13477,0.96332 -0.03900,0.17400,-0.46500 -0.06920,-0.03833,-0.04684 -0.04877,-0.13477,0.96332 -0.04471,0.17195,-0.47073 0.03456,-0.02731,-0.03474
06/17/24 13:21:15.534903 0.00000,299.82001,0.10990,-0.19174,0.22100,0.50900,0.14600,0.48400,0.03900,179.10770,100.00000,0.05578 94 -0.06494,0.04046,0.00852 -0.02631,-0.15540,0.98419 -0.04350,0.17850,-0.47100 -0.06494,0.04046,0.00852 -0.02631,-0.15540,0.98419 -0.04450,0.17214,-0.47082 0.02194,-0.00532,-0.06002
06/17/24 13:21:15.579010 0.00000,299.82001,0.10990,-0.19174,0.22100,0.50900,0.14600,0.48400,0.03900,179.10770,100.00000,0.05578 94 -0.02555,-0.03620,-0.05536 -0.03882,-0.14679,0.96918 -0.04200,0.16950,-0.46800 -0.02555,-0.03620,-0.05536 -0.03882,-0.14679,0.96918 -0.04435,0.17225,-0.47084 0.03042,-0.02061,-0.04718
06/17/24 13:21:15.622552 0.00000,299.82001,0.10990,-0.19174,0.22100,0.50900,0.14600,0.48400,0.03900,179.10770,100.00000,0.05578 94 -0.06388,-0.03300,-0.04684 -0.02484,-0.16052,0.99518 -0.04050,0.17700,-0.47100 -0.06388,-0.03300,-0.04684 -0.02484,-0.16052,0.99518 -0.04413,0.17258,-0.47077 0.02319,0.00616,-0.06212
06/17/24 13:21:15.666831 0.00000,299.82001,0.10990,-0.19174,0.22100,0.50900,0.14600,0.48400,0.03900,179.10770,100.00000,0.05578 94 -0.00106,0.02342,0.00639 -0.02441,-0.15906,0.97998 -0.04650,0.17850,-0.46200 -0.00106,0.02342,0.00639 -0.02441,-0.15906,0.97998 -0.04413,0.17310,-0.47025 0.02199,-0.00910,-0.06243
06/17/24 13:21:15.710387 0.00000,299.82001,0.10990,-0.19174,0.22100,0.50900,0.14600,0.48400,0.03900,179.10770,100.00000,0.05578 94 -0.01597,-0.00106,-0.07239 -0.03619,-0.14661,0.95654 -0.03600,0.18000,-0.46950 -0.01597,-0.00106,-0.07239 -0.03619,-0.14661,0.95654 -0.04407,0.17348,-0.46989 0.02809,-0.03329,-0.04957
06/17/24 13:21:15.754567 0.00000,299.82001,0.10990,-0.19174,0.22100,0.50900,0.14600,0.48400,0.03900,179.10770,100.00000,0.05578 94 -0.02129,0.03194,-0.09688 -0.01868,-0.15240,0.95862 -0.04800,0.17700,-0.47100 -0.02129,0.03194,-0.09688 -0.01868,-0.15240,0.95862 -0.04416,0.17501,-0.46951 0.01360,-0.03128,-0.06261
06/17/24 13:21:15.798868 0.00000,299.82001,0.10990,-0.19174,0.22100,0.50900,0.14600,0.48400,0.03900,179.10770,100.00000,0.05578 94 -0.09901,-0.00532,-0.14266 -0.03851,-0.14789,0.96375 -0.04350,0.18300,-0.46650 -0.09901,-0.00532,-0.14266 -0.03851,-0.14789,0.96375 -0.04438,0.17542,-0.46964 0.02707,-0.02576,-0.04775
06/17/24 13:21:15.842457 0.00000,299.82001,0.10990,-0.19174,0.22100,0.50900,0.14600,0.48400,0.03900,179.10770,100.00000,0.05578 94 -0.03726,0.02874,-0.15437 -0.01288,-0.19135,1.03455 -0.04350,0.18300,-0.46800 -0.03726,0.02874,-0.15437 -0.01288,-0.19135,1.03455 -0.04424,0.17577,-0.46926 0.01741,0.04818,-0.08988
06/17/24 13:21:15.886813 0.00000,299.82001,0.10990,-0.19174,0.22100,0.50900,0.14600,0.48400,0.03900,179.10770,100.00000,0.05578 94 0.07452,0.08730,-0.07026 -0.07513,-0.17645,0.97498 -0.04800,0.18600,-0.47100 0.07452,0.08730,-0.07026 -0.07513,-0.17645,0.97498 -0.04585,0.18042,-0.47058 0.06726,-0.01010,-0.05419
06/17/24 13:21:15.931014 0.00000,299.82001,0.10990,-0.19174,0.22100,0.50900,0.14600,0.48400,0.03900,179.10770,100.00000,0.05578 94 0.02981,0.02236,-0.03087 -0.04266,-0.16425,0.93909 -0.04650,0.18000,-0.46500 0.02981,0.02236,-0.03087 -0.04266,-0.16425,0.93909 -0.04803,0.18289,-0.46833 0.02950,-0.04825,-0.06310
06/17/24 13:21:15.974643 0.00000,299.82001,0.10990,-0.19174,0.22100,0.50900,0.14600,0.48400,0.03900,179.10770,100.00000,0.05578 94 -0.01916,-0.01810,-0.05642 -0.02325,-0.17596,0.98920 -0.05100,0.18900,-0.46650 -0.01916,-0.01810,-0.05642 -0.02325,-0.17596,0.98920 -0.04809,0.18296,-0.46829 0.00969,0.00194,-0.07773
06/17/24 13:21:16.018957 0.00000,299.82001,0.10990,-0.19174,0.22100,0.50900,0.14600,0.48400,0.03900,179.10770,100.00000,0.05578 94 0.04791,-0.02874,-0.07452 -0.04602,-0.15057,0.95612 -0.04950,0.18000,-0.46650 0.04791,-0.02874,-0.07452 -0.04602,-0.15057,0.95612 -0.04806,0.18310,-0.46836 0.01870,-0.03228,-0.04598
06/17/24 13:21:16.062544 0.00000,299.82001,0.10990,-0.19174,0.22100,0.50900,0.14600,0.48400,0.03900,179.10770,100.00000,0.05578 94 -0.06175,0.00639,-0.00639 -0.04871,-0.14386,0.95837 -0.04950,0.18000,-0.46950 -0.06175,0.00639,-0.00639 -0.04871,-0.14386,0.95837 -0.04798,0.18169,-0.46815 0.01503,-0.03053,-0.03808
06/17/24 13:21:16.106701 0.00000,299.82001,0.10990,-0.19174,0.22100,0.50900,0.14600,0.48400,0.03900,179.10770,100.00000,0.05578 94 -0.01278,-0.00532,-0.02236 -0.00934,-0.17041,0.99249 -0.04950,0.18450,-0.46800 -0.01278,-0.00532,-0.02236 -0.00934,-0.17041,0.99249 -0.04779,0.18173,-0.46819 -0.01335,0.00397,-0.07767
06/17/24 13:21:16.151068 0.00000,299.82001,0.10990,-0.19174,0.22100,0.50900,0.14600,0.48400,0.03900,179.10770,100.00000,0.05578 94 -0.00319,0.02768,-0.02236 -0.03064,-0.16907,0.97400 -0.05250,0.18450,-0.47100 -0.00319,0.02768,-0.02236 -0.03064,-0.16907,0.97400 -0.04781,0.18173,-0.46807 0.00521,-0.01327,-0.06727
06/17/24 13:21:16.194674 0.00000,299.82001,0.10990,-0.19174,0.22100,0.50900,0.14600,0.48400,0.03900,179.10770,100.00000,0.05578 94 -0.01065,0.01278,-0.00745 0.00177,-0.18140,0.98682 -0.04350,0.18150,-0.46800 -0.01065,0.01278,-0.00745 0.00177,-0.18140,0.98682 -0.04751,0.18170,-0.46794 -0.02000,-0.00130,-0.09436
06/17/24 13:21:16.239023 0.00000,299.82001,0.10990,-0.19174,0.22100,0.50900,0.14600,0.48400,0.03900,179.10770,100.00000,0.05578 94 0.11604,-0.03300,-0.13095 -0.01099,-0.17310,1.00250 -0.04950,0.18450,-0.46950 0.11604,-0.03300,-0.13095 -0.01099,-0.17310,1.00250 -0.04501,0.18326,-0.47289 -0.01223,0.01411,-0.08080
06/17/24 13:21:16.282667 0.00000,299.82001,0.10990,-0.19174,0.22100,0.50900,0.14600,0.48400,0.03900,179.10770,100.00000,0.05578 94 -0.01597,-0.00106,-0.07026 -0.06873,-0.12408,0.88861 -0.04500,0.17400,-0.46500 -0.01597,-0.00106,-0.07026 -0.06873,-0.12408,0.88861 -0.04658,0.18139,-0.47065 0.02907,-0.10077,-0.01713
06/17/24 13:21:16.326757 0.00000,299.82001,0.10990,-0.19174,0.22100,0.50900,0.14600,0.48400,0.03900,179.10770,100.00000,0.05578 94 -0.15118,0.00213,-0.01810 -0.04004,-0.13922,0.95984 -0.04800,0.18300,-0.46950 -0.15118,0.00213,-0.01810 -0.04004,-0.13922,0.95984 -0.04672,0.18140,-0.47047 0.00206,-0.02999,-0.03682
06/17/24 13:21:16.371042 0.00000,299.82001,0.10990,-0.19174,0.22100,0.50900,0.14600,0.48400,0.03900,179.10770,100.00000,0.05578 94 -0.11072,-0.01490,-0.00426 -0.04382,-0.17853,1.01929 -0.05250,0.18150,-0.46800 -0.11072,-0.01490,-0.00426 -0.04382,-0.17853,1.01929 -0.04719,0.18151,-0.47032 0.01618,0.03388,-0.05970
06/17/24 13:21:16.414627 0.00000,299.82001,0.10990,-0.19174,0.22100,0.50900,0.14600,0.48400,0.03900,179.10770,100.00000,0.05578 94 -0.02129,0.01810,0.07772 -0.04919,-0.16785,0.96246 -0.05850,0.18150,-0.46350 -0.02129,0.01810,0.07772 -0.04919,-0.16785,0.96246 -0.05095,0.18146,-0.46637 0.01930,-0.02332,-0.05149
06/17/24 13:21:16.458799 0.00000,299.82001,0.10990,-0.19174,0.22100,0.50900,0.14600,0.48400,0.03900,179.10770,100.00000,0.05578 94 -0.09369,-0.02981,0.13947 -0.05176,-0.16138,0.96057 -0.04650,0.18300,-0.46500 -0.09369,-0.02981,0.13947 -0.05176,-0.16138,0.96057 -0.05214,0.18289,-0.46639 0.01624,-0.02571,-0.04369
06/17/24 13:21:16.503183 0.00000,299.82001,0.10990,-0.19174,0.22100,0.50900,0.14600,0.48400,0.03900,179.10770,100.00000,0.05578 94 -0.04897,-0.00426,0.18205 -0.01422,-0.17407,1.02032 -0.04800,0.17850,-0.46200 -0.04897,-0.00426,0.18205 -0.01422,-0.17407,1.02032 -0.05177,0.18283,-0.46631 -0.01896,0.03278,-0.06755
06/17/24 13:21:16.546845 0.00000,299.82001,0.10990,-0.19174,0.22100,0.50900,0.14600,0.48400,0.03900,179.10770,100.00000,0.05578 94 0.04578,0.01384,0.18099 -0.00842,-0.16974,0.96204 -0.04650,0.18300,-0.46650 0.04578,0.01384,0.18099 -0.00842,-0.16974,0.96204 -0.05152,0.18302,-0.46623 -0.01977,-0.02600,-0.07293
06/17/24 13:21:16.591204 0.00000,299.82001,0.10990,-0.19174,0.22100,0.50900,0.14600,0.48400,0.03900,179.10770,100.00000,0.05578 94 -0.03407,-0.05323,0.08836 -0.01007,-0.14838,0.95715 -0.04350,0.18750,-0.46200 -0.03407,-0.05323,0.08836 -0.01007,-0.14838,0.95715 -0.05020,0.18347,-0.46573 -0.02702,-0.03329,-0.05481
06/17/24 13:21:16.634775 0.00000,299.82001,0.10990,-0.19174,0.22100,0.50900,0.14600,0.48400,0.03900,179.10770,100.00000,0.05578 94 0.00958,-0.03407,0.01384 0.00366,-0.16431,1.00427 -0.04500,0.18300,-0.46500 0.00958,-0.03407,0.01384 0.00366,-0.16431,1.00427 -0.04421,0.18343,-0.46407 -0.03456,0.01462,-0.07021
06/17/24 13:21:16.678913 0.00000,299.82001,0.10990,-0.19174,0.22100,0.50900,0.14600,0.48400,0.03900,179.10770,100.00000,0.05578 94 0.00958,0.03726,0.00639 -0.00769,-0.15515,0.94196 -0.05100,0.18450,-0.47100 0.00958,0.03726,0.00639 -0.00769,-0.15515,0.94196 -0.04421,0.18458,-0.46511 -0.01907,-0.04751,-0.06172
06/17/24 13:21:16.723244 0.00000,299.82001,0.10990,-0.19174,0.22100,0.50900,0.14600,0.48400,0.03900,179.10770,100.00000,0.05578 94 -0.04152,0.02981,0.00532 -0.01721,-0.16650,0.97809 -0.04800,0.18300,-0.46200 -0.04152,0.02981,0.00532 -0.01721,-0.16650,0.97809 -0.04460,0.18467,-0.46533 -0.00880,-0.00978,-0.06372
06/17/24 13:21:16.766809 0.00000,299.82001,0.10990,-0.19174,0.22100,0.50900,0.14600,0.48400,0.03900,179.10770,100.00000,0.05578 94 0.01490,-0.01171,-0.04046 -0.03644,-0.18481,0.98016 -0.04050,0.18000,-0.46350 0.01490,-0.01171,-0.04046 -0.03644,-0.18481,0.98016 -0.04519,0.18495,-0.46535 0.01786,-0.00447,-0.06930
06/17/24 13:21:16.810970 0.00000,299.82001,0.10990,-0.19174,0.22100,0.50900,0.14600,0.48400,0.03900,179.10770,100.00000,0.05578 94 0.02129,0.02236,0.00745 -0.04132,-0.17548,0.97498 -0.04050,0.18450,-0.46800 0.02129,0.02236,0.00745 -0.04132,-0.17548,0.97498 -0.04722,0.18469,-0.46636 0.01916,-0.01047,-0.05944
06/17/24 13:21:16.854771 0.00000,299.82001,0.10990,-0.19174,0.22100,0.50900,0.14600,0.48400,0.03900,179.10770,100.00000,0.05578 94 0.01065,0.00532,0.04684 -0.04828,-0.15973,0.96161 -0.05100,0.17850,-0.46800 0.01065,0.00532,0.04684 -0.04828,-0.15973,0.96161 -0.04775,0.18416,-0.46604 0.01932,-0.02523,-0.04462
06/17/24 13:21:16.899002 0.00000,299.82001,0.10990,-0.19174,0.22100,0.50900,0.14600,0.48400,0.03900,179.10770,100.00000,0.05578 94 -0.01597,-0.01916,0.06388 -0.03119,-0.17572,0.96289 -0.04050,0.19050,-0.46200 -0.01597,-0.01916,0.06388 -0.03119,-0.17572,0.96289 -0.04781,0.18416,-0.46605 0.01172,-0.02307,-0.06696
06/17/24 13:21:16.943356 0.00000,299.82001,0.10990,-0.19174,0.22100,0.50900,0.14600,0.48400,0.03900,179.10770,100.00000,0.05578 94 -0.02662,-0.03194,0.06494 -0.03900,-0.16376,0.98102 -0.04800,0.18900,-0.46500 -0.02662,-0.03194,0.06494 -0.03900,-0.16376,0.98102 -0.05032,0.18338,-0.46611 0.01093,-0.00596,-0.04991
06/17/24 13:21:16.986984 0.00000,299.82001,0.10990,-0.19174,0.22100,0.50900,0.14600,0.48400,0.03900,179.10770,100.00000,0.05578 94 -0.05642,-0.05749,0.02874 -0.01904,-0.16376,0.96887 -0.04200,0.18150,-0.46200 -0.05642,-0.05749,0.02874 -0.01904,-0.16376,0.96887 -0.04987,0.18360,-0.46579 -0.00439,-0.01899,-0.05907
06/17/24 13:21:17.031128 0.00000,299.82001,0.10990,-0.19174,0.22100,0.50900,0.14600,0.48400,0.03900,179.10770,100.00000,0.05578 94 -0.02023,-0.04046,-0.00745 -0.01416,-0.16516,0.95142 -0.04500,0.18300,-0.46500 -0.02023,-0.04046,-0.00745 -0.01416,-0.16516,0.95142 -0.04533,0.18266,-0.46286 -0.00440,-0.03629,-0.06259
06/17/24 13:21:17.074823 0.00000,299.82001,0.10990,-0.19174,0.22100,0.50900,0.14600,0.48400,0.03900,179.10770,100.00000,0.05578 94 -0.04578,-0.02662,-0.01384 -0.06104,-0.18860,0.99884 -0.04950,0.18750,-0.46200 -0.04578,-0.02662,-0.01384 -0.06104,-0.18860,0.99884 -0.04697,0.18537,-0.46324 0.04514,0.01590,-0.05376
06/17/24 13:21:17.118990 0.00000,299.82001,0.10990,-0.19174,0.22100,0.50900,0.14600,0.48400,0.03900,179.10770,100.00000,0.05578 94 0.07985,-0.05430,0.00426 -0.02301,-0.19171,0.98944 -0.05100,0.18450,-0.46050 0.07985,-0.05430,0.00426 -0.02301,-0.19171,0.98944 -0.04764,0.18622,-0.46091 0.01444,0.00521,-0.07502
06/17/24 13:21:17.163139 0.00000,299.82001,0.10990,-0.19174,0.22100,0.50900,0.14600,0.48400,0.03900,179.10770,100.00000,0.05578 94 -0.01278,-0.04578,0.05004 -0.00793,-0.12482,0.93427 -0.04500,0.18600,-0.46650 -0.01278,-0.04578,0.05004 -0.00793,-0.12482,0.93427 -0.04764,0.18620,-0.46149 -0.02447,-0.05816,-0.02881
06/17/24 13:21:17.206888 0.00000,299.82001,0.10990,-0.19174,0.22100,0.50900,0.14600,0.48400,0.03900,179.10770,100.00000,0.05578 94 -0.02981,0.00426,-0.00213 0.01648,-0.19568,0.98254 -0.04950,0.18750,-0.47100 -0.02981,0.00426,-0.00213 0.01648,-0.19568,0.98254 -0.04823,0.18503,-0.46320 -0.01993,-0.00291,-0.09682
06/17/24 13:21:17.251028 0.00000,299.82001,0.10990,-0.19174,0.22100,0.50900,0.14600,0.48400,0.03900,179.10770,100.00000,0.05578 94 0.01703,-0.06920,-0.09795 -0.01190,-0.17194,0.98138 -0.05550,0.18900,-0.46350 0.01703,-0.06920,-0.09795 -0.01190,-0.17194,0.98138 -0.04870,0.18531,-0.46339 -0.00467,-0.00552,-0.06166
06/17/24 13:21:17.295141 0.00000,299.82001,0.10990,-0.19174,0.22100,0.50900,0.14600,0.48400,0.03900,179.10770,100.00000,0.05578 94 0.02662,-0.03726,-0.20654 0.03595,-0.12646,0.96045 -0.05100,0.19350,-0.46800 0.02662,-0.03726,-0.20654 0.03595,-0.12646,0.96045 -0.05103,0.19236,-0.46767 -0.06051,-0.03363,-0.04697
06/17/24 13:21:17.338839 0.00000,299.82001,0.10990,-0.19174,0.22100,0.50900,0.14600,0.48400,0.03900,179.10770,100.00000,0.05578 94 -0.07665,-0.03726,-0.27041 -0.04272,-0.16815,0.93378 -0.05700,0.18450,-0.46800 -0.07665,-0.03726,-0.27041 -0.04272,-0.16815,0.93378 -0.05379,0.18877,-0.46500 0.03598,-0.05196,-0.04439
06/17/24 13:21:17.383038 0.00000,299.82001,0.10990,-0.19174,0.22100,0.50900,0.14600,0.48400,0.03900,179.10770,100.00000,0.05578 94 -0.12669,0.02342,-0.17566 -0.04114,-0.18469,0.98163 -0.05700,0.19200,-0.46050 -0.12669,0.02342,-0.17566 -0.04114,-0.18469,0.98163 -0.05656,0.18858,-0.46394 0.03559,-0.00223,-0.05083
06/17/24 13:21:17.426842 0.00000,299.82001,0.10990,-0.19174,0.22100,0.50900,0.14600,0.48400,0.03900,179.10770,100.00000,0.05578 94 -0.08091,-0.01278,-0.12137 -0.02960,-0.17151,0.96564 -0.06150,0.18900,-0.46050 -0.08091,-0.01278,-0.12137 -0.02960,-0.17151,0.96564 -0.05819,0.19016,-0.46416 0.01681,-0.01995,-0.04437
06/17/24 13:21:17.471073 0.00000,299.82001,0.10990,-0.19174,0.22100,0.50900,0.14600,0.48400,0.03900,179.10770,100.00000,0.05578 94 -0.16608,-0.03300,-0.07239 -0.01978,-0.19055,0.97131 -0.06150,0.18750,-0.46650 -0.16608,-0.03300,-0.07239 -0.01978,-0.19055,0.97131 -0.05919,0.18971,-0.46397 0.01420,-0.01196,-0.06108
06/17/24 13:21:17.515284 0.00000,299.82001,0.10990,-0.19174,0.22100,0.50900,0.14600,0.48400,0.03900,179.10770,100.00000,0.05578 94 -0.08410,0.02874,0.02555 -0.00568,-0.20514,0.99072 -0.06450,0.19350,-0.46050 -0.08410,0.02874,0.02555 -0.00568,-0.20514,0.99072 -0.06129,0.19096,-0.46270 0.00332,0.00888,-0.07611
06/17/24 13:21:17.559103 0.00000,299.82001,0.10990,-0.19174,0.22100,0.50900,0.14600,0.48400,0.03900,179.10770,100.00000,0.05578 94 0.01916,0.02236,-0.00319 0.01196,-0.19397,0.98761 -0.06900,0.20250,-0.45750 0.01916,0.02236,-0.00319 0.01196,-0.19397,0.98761 -0.06379,0.19306,-0.46188 -0.01953,0.00353,-0.07543
06/17/24 13:21:17.603287 0.00000,299.82001,0.10990,-0.19174,0.22100,0.50900,0.14600,0.48400,0.03900,179.10770,100.00000,0.05578 94 -0.01916,-0.02236,-0.10966 0.02435,-0.17194,0.95599 -0.06300,0.19350,-0.45600 -0.01916,-0.02236,-0.10966 0.02435,-0.17194,0.95599 -0.06367,0.19352,-0.46003 -0.03719,-0.03131,-0.06590
06/17/24 13:21:17.646868 0.00000,299.82001,0.10990,-0.19174,0.22100,0.50900,0.14600,0.48400,0.03900,179.10770,100.00000,0.05578 94 -0.02342,-0.00852,-0.18524 0.01221,-0.15918,0.94696 -0.06600,0.19950,-0.46050 -0.02342,-0.00852,-0.18524 0.01221,-0.15918,0.94696 -0.06358,0.19414,-0.46055 -0.03013,-0.04131,-0.04720
06/17/24 13:21:17.691176 0.00000,299.82001,0.10990,-0.19174,0.22100,0.50900,0.14600,0.48400,0.03900,179.10770,100.00000,0.05578 94 -0.11072,0.05430,-0.18418 0.00574,-0.18457,0.98438 -0.06450,0.19800,-0.45600 -0.11072,0.05430,-0.18418 0.00574,-0.18457,0.98438 -0.06393,0.19436,-0.46024 -0.01571,-0.00024,-0.05773
06/17/24 13:21:17.735331 0.00000,299.82001,0.10990,-0.19174,0.22100,0.50900,0.14600,0.48400,0.03900,179.10770,100.00000,0.05578 94 -0.07772,0.05110,-0.19589 -0.00104,-0.20410,0.96173 -0.07050,0.20400,-0.45150 -0.07772,0.05110,-0.19589 -0.00104,-0.20410,0.96173 -0.06442,0.19495,-0.45985 0.00171,-0.01937,-0.07029
06/17/24 13:21:17.779106 0.00000,299.82001,0.10990,-0.19174,0.22100,0.50900,0.14600,0.48400,0.03900,179.10770,100.00000,0.05578 94 -0.07026,0.05749,-0.19483 -0.03247,-0.21826,0.96973 -0.06600,0.20550,-0.45450 -0.07026,0.05749,-0.19483 -0.03247,-0.21826,0.96973 -0.06498,0.19642,-0.45881 0.03372,-0.00799,-0.06193
06/17/24 13:21:17.823259 0.00000,299.82001,0.10990,-0.19174,0.22100,0.50900,0.14600,0.48400,0.03900,179.10770,100.00000,0.05578 94 -0.00532,0.04365,-0.14372 -0.02832,-0.19409,0.96808 -0.06750,0.19950,-0.45750 -0.00532,0.04365,-0.14372 -0.02832,-0.19409,0.96808 -0.06529,0.19676,-0.45855 0.01575,-0.01338,-0.04444
06/17/24 13:21:17.867481 0.00000,299.82001,0.10990,-0.19174,0.22100,0.50900,0.14600,0.48400,0.03900,179.10770,100.00000,0.05578 94 -0.07133,0.00319,-0.11072 -0.02802,-0.20990,0.96252 -0.07500,0.20700,-0.45600 -0.07133,0.00319,-0.11072 -0.02802,-0.20990,0.96252 -0.06600,0.19769,-0.45818 0.02394,-0.01640,-0.05699
06/17/24 13:21:17.911234 0.00000,299.82001,0.10990,-0.19174,0.22100,0.50900,0.14600,0.48400,0.03900,179.10770,100.00000,0.05578 94 -0.03194,0.00213,-0.12669 0.04077,-0.22748,0.97498 -0.07050,0.20250,-0.45450 -0.03194,0.00213,-0.12669 0.04077,-0.22748,0.97498 -0.06738,0.19870,-0.45697 -0.02532,-0.00402,-0.10665
06/17/24 13:21:17.955317 0.00000,299.82001,0.10990,-0.19174,0.22100,0.50900,0.14600,0.48400,0.03900,179.10770,100.00000,0.05578 94 0.01490,-0.04471,-0.19695 0.00098,-0.22614,0.96490 -0.07350,0.20250,-0.45300 0.01490,-0.04471,-0.19695 0.00098,-0.22614,0.96490 -0.06987,0.20097,-0.45551 0.01152,-0.01224,-0.07986
06/17/24 13:21:17.998861 0.00000,299.82001,0.10990,-0.19174,0.22100,0.50900,0.14600,0.48400,0.03900,179.10770,100.00000,0.05578 94 -0.08943,-0.01384,-0.12563 -0.03632,-0.23242,0.96368 -0.07050,0.20100,-0.45000 -0.08943,-0.01384,-0.12563 -0.03632,-0.23242,0.96368 -0.07247,0.20362,-0.45174 0.04597,-0.01081,-0.05843
06/17/24 13:21:18.043177 0.00000,299.82001,0.10990,-0.19174,0.22100,0.50900,0.14600,0.48400,0.03900,179.10770,100.00000,0.05578 94 -0.02023,0.03939,-0.04471 0.00647,-0.22955,0.95813 -0.07650,0.21000,-0.45750 -0.02023,0.03939,-0.04471 0.00647,-0.22955,0.95813 -0.07585,0.20749,-0.45382 0.00477,-0.01785,-0.07820
06/17/24 13:21:18.087288 0.00000,299.82001,0.10990,-0.19174,0.22100,0.50900,0.14600,0.48400,0.03900,179.10770,100.00000,0.05578 94 -0.08091,-0.01490,-0.12243 0.01575,-0.21741,0.95905 -0.08100,0.20400,-0.45300 -0.08091,-0.01490,-0.12243 0.01575,-0.21741,0.95905 -0.07606,0.20718,-0.45374 -0.01360,-0.01907,-0.06978
06/17/24 13:21:18.130848 0.00000,299.82001,0.10990,-0.19174,0.22100,0.50900,0.14600,0.48400,0.03900,179.10770,100.00000,0.05578 94 -0.01171,0.02129,0.01278 -0.06726,-0.22998,0.96765 -0.08250,0.20850,-0.45300 -0.01171,0.02129,0.01278 -0.06726,-0.22998,0.96765 -0.08115,0.20761,-0.45295 0.05436,-0.00501,-0.02853
06/17/24 13:21:18.175194 0.00000,299.82001,0.10990,-0.19174,0.22100,0.50900,0.14600,0.48400,0.03900,179.10770,100.00000,0.05578 94 -0.02129,0.08943,0.16715 0.03351,-0.22845,1.01941 -0.07800,0.20850,-0.45600 -0.02129,0.08943,0.16715 0.03351,-0.22845,1.01941 -0.08017,0.20604,-0.45247 -0.04091,0.04116,-0.08257
06/17/24 13:21:18.218767 0.00000,299.82001,0.10990,-0.19174,0.22100,0.50900,0.14600,0.48400,0.03900,179.10770,100.00000,0.05578 94 0.06068,0.04258,0.11604 -0.04211,-0.21423,0.91980 -0.07800,0.21000,-0.45600 0.06068,0.04258,0.11604 -0.04211,-0.21423,0.91980 -0.07975,0.20703,-0.45327 0.02311,-0.05584,-0.04166
06/17/24 13:21:18.263088 0.00000,299.82001,0.10990,-0.19174,0.22100,0.50900,0.14600,0.48400,0.03900,179.10770,100.00000,0.05578 94 -0.06388,0.01171,0.16076 -0.00989,-0.21173,0.97357 -0.07350,0.21000,-0.45000 -0.06388,0.01171,0.16076 -0.00989,-0.21173,0.97357 -0.07960,0.20762,-0.45355 -0.01443,-0.00508,-0.05183
06/17/24 13:21:18.307249 0.00000,299.82001,0.10990,-0.19174,0.22100,0.50900,0.14600,0.48400,0.03900,179.10770,100.00000,0.05578 94 0.03833,-0.02768,0.10540 0.02618,-0.23010,0.98785 -0.07200,0.20700,-0.45600 0.03833,-0.02768,0.10540 0.02618,-0.23010,0.98785 -0.07894,0.20774,-0.45345 -0.03586,0.01039,-0.08554
06/17/24 13:21:18.350786 0.00000,299.82001,0.10990,-0.19174,0.22100,0.50900,0.14600,0.48400,0.03900,179.10770,100.00000,0.05578 94 0.01597,-0.00745,0.04365 0.03241,-0.21246,0.94006 -0.07500,0.21000,-0.44550 0.01597,-0.00745,0.04365 0.03241,-0.21246,0.94006 -0.07713,0.20751,-0.45149 -0.04187,-0.03995,-0.08033
06/17/24 13:21:18.395079 0.00000,299.82001,0.10990,-0.19174,0.22100,0.50900,0.14600,0.48400,0.03900,179.10770,100.00000,0.05578 94 -0.02662,-0.02236,0.00000 0.00940,-0.20660,0.95630 -0.07200,0.20250,-0.44550 -0.02662,-0.02236,0.00000 0.00940,-0.20660,0.95630 -0.07695,0.20729,-0.45151 -0.02736,-0.02373,-0.05857
06/17/24 13:21:18.438660 0.00000,299.82001,0.10990,-0.19174,0.22100,0.50900,0.14600,0.48400,0.03900,179.10770,100.00000,0.05578 94 0.00639,-0.00745,-0.08198 0.03735,-0.21387,0.98218 -0.07050,0.20550,-0.44550 0.00639,-0.00745,-0.08198 0.03735,-0.21387,0.98218 -0.07459,0.20667,-0.44913 -0.04739,0.00194,-0.07539
06/17/24 13:21:18.482756 0.00000,299.82001,0.10990,-0.19174,0.22100,0.50900,0.14600,0.48400,0.03900,179.10770,100.00000,0.05578 94 0.00532,0.00106,-0.12882 -0.00342,-0.21057,0.94537 -0.07350,0.20400,-0.45600 0.00532,0.00106,-0.12882 -0.00342,-0.21057,0.94537 -0.07271,0.20563,-0.44947 -0.00600,-0.03281,-0.05090
06/17/24 13:21:18.527048 0.00000,299.82001,0.10990,-0.19174,0.22100,0.50900,0.14600,0.48400,0.03900,179.10770,100.00000,0.05578 94 -0.04046,0.04578,-0.10327 0.00421,-0.21246,0.96436 -0.07500,0.21600,-0.45300 -0.04046,0.04578,-0.10327 0.00421,-0.21246,0.96436 -0.07282,0.20619,-0.44996 -0.01204,-0.01397,-0.05236
06/17/24 13:21:18.570622 0.00000,299.82001,0.10990,-0.19174,0.22100,0.50900,0.14600,0.48400,0.03900,179.10770,100.00000,0.05578 94 -0.02023,0.00106,-0.08517 -0.02094,-0.22845,0.97687 -0.07800,0.20700,-0.45000 -0.02023,0.00106,-0.08517 -0.02094,-0.22845,0.97687 -0.07301,0.20632,-0.44989 0.01700,0.00223,-0.04643
06/17/24 13:21:18.614895 0.00000,299.82001,0.10990,-0.19174,0.22100,0.50900,0.14600,0.48400,0.03900,179.10770,100.00000,0.05578 94 -0.03300,0.03300,0.01597 -0.02563,-0.22241,0.96484 -0.07950,0.20550,-0.45150 -0.03300,0.03300,0.01597 -0.02563,-0.22241,0.96484 -0.07330,0.20657,-0.44981 0.01938,-0.01053,-0.04030
06/17/24 13:21:18.659010 0.00000,299.82001,0.10990,-0.19174,0.22100,0.50900,0.14600,0.48400,0.03900,179.10770,100.00000,0.05578 94 0.00532,-0.02981,0.00958 -0.02002,-0.21173,0.95685 -0.07500,0.21150,-0.45600 0.00532,-0.02981,0.00958 -0.02002,-0.21173,0.95685 -0.07390,0.20663,-0.45015 0.01071,-0.02053,-0.03623
06/17/24 13:21:18.702581 0.00000,299.82001,0.10990,-0.19174,0.22100,0.50900,0.14600,0.48400,0.03900,179.10770,100.00000,0.05578 94 -0.02555,-0.00213,0.06494 -0.01843,-0.22119,0.97021 -0.07950,0.20700,-0.44700 -0.02555,-0.00213,0.06494 -0.01843,-0.22119,0.97021 -0.07417,0.20672,-0.45005 0.01402,-0.00571,-0.04199
06/17/24 13:21:18.746826 0.00000,299.82001,0.10990,-0.19174,0.22100,0.50900,0.14600,0.48400,0.03900,179.10770,100.00000,0.05578 94 0.01384,-0.01916,0.01916 0.02057,-0.21820,0.96521 -0.07950,0.21150,-0.44850 0.01384,-0.01916,0.01916 0.02057,-0.21820,0.96521 -0.07461,0.20696,-0.45030 -0.01787,-0.01243,-0.06367
06/17/24 13:21:18.790365 0.00000,299.82001,0.10990,-0.19174,0.22100,0.50900,0.14600,0.48400,0.03900,179.10770,100.00000,0.05578 94 -0.00319,0.00106,0.02768 0.00256,-0.22003,0.96246 -0.07650,0.21300,-0.44850 -0.00319,0.00106,0.02768 0.00256,-0.22003,0.96246 -0.07481,0.20727,-0.45040 -0.00095,-0.01424,-0.05501
06/17/24 13:21:18.834448 0.00000,299.82001,0.10990,-0.19174,0.22100,0.50900,0.14600,0.48400,0.03900,179.10770,100.00000,0.05578 94 -0.00426,0.04258,0.00639 0.01654,-0.20685,0.94733 -0.07050,0.21600,-0.44850 -0.00426,0.04258,0.00639 0.01654,-0.20685,0.94733 -0.07406,0.20910,-0.45012 -0.01873,-0.03198,-0.05541
06/17/24 13:21:18.878748 0.00000,299.82001,0.10990,-0.19174,0.22100,0.50900,0.14600,0.48400,0.03900,179.10770,100.00000,0.05578 94 -0.03087,0.02768,-0.06068 -0.00580,-0.21448,0.97125 -0.07350,0.21000,-0.45300 -0.03087,0.02768,-0.06068 -0.00580,-0.21448,0.97125 -0.07173,0.21235,-0.44956 -0.00009,-0.00632,-0.04434
06/17/24 13:21:18.922270 0.00000,299.82001,0.10990,-0.19174,0.22100,0.50900,0.14600,0.48400,0.03900,179.10770,100.00000,0.05578 94 0.01065,0.00000,-0.09688 -0.01019,-0.23401,0.98053 -0.07800,0.21150,-0.45000 0.01065,0.00000,-0.09688 -0.01019,-0.23401,0.98053 -0.07198,0.21214,-0.44962 0.01410,0.00654,-0.05458
06/17/24 13:21:18.966377 0.00000,299.82001,0.10990,-0.19174,0.22100,0.50900,0.14600,0.48400,0.03900,179.10770,100.00000,0.05578 94 0.01384,-0.00213,-0.07133 -0.03192,-0.21826,0.97296 -0.07800,0.20550,-0.45000 0.01384,-0.00213,-0.07133 -0.03192,-0.21826,0.97296 -0.07297,0.21097,-0.44941 0.02481,-0.00310,-0.02970
06/17/24 13:21:19.010105 0.00000,299.82001,0.10990,-0.19174,0.22100,0.50900,0.14600,0.48400,0.03900,179.10770,100.00000,0.05578 94 -0.01703,0.01384,-0.03087 -0.00262,-0.20862,0.94849 -0.07500,0.20550,-0.44700 -0.01703,0.01384,-0.03087 -0.00262,-0.20862,0.94849 -0.07325,0.21056,-0.44934 -0.00126,-0.02978,-0.04281
06/17/24 13:21:19.054230 0.00000,299.82001,0.10990,-0.19174,0.22100,0.50900,0.14600,0.48400,0.03900,179.10770,100.00000,0.05578 94 -0.02981,0.00532,-0.03620 -0.02148,-0.22845,0.96771 -0.07800,0.21150,-0.45000 -0.02981,0.00532,-0.03620 -0.02148,-0.22845,0.96771 -0.07357,0.21070,-0.44930 0.02232,-0.00667,-0.04385
06/17/24 13:21:19.098490 0.00000,299.82001,0.10990,-0.19174,0.22100,0.50900,0.14600,0.48400,0.03900,179.10770,100.00000,0.05578 94 0.00319,0.03194,-0.01916 -0.01581,-0.24164,0.97516 -0.07050,0.20550,-0.44850 0.00319,0.03194,-0.01916 -0.01581,-0.24164,0.97516 -0.07354,0.21078,-0.44929 0.02312,0.00287,-0.05735
06/17/24 13:21:19.142017 0.00000,299.82001,0.10990,-0.19174,0.22100,0.50900,0.14600,0.48400,0.03900,179.10770,100.00000,0.05578 94 0.02129,0.01597,0.02342 -0.00226,-0.21606,0.94946 -0.07650,0.21000,-0.44250 0.02129,0.01597,0.02342 -0.00226,-0.21606,0.94946 -0.07426,0.21034,-0.44951 0.00039,-0.02754,-0.04981
06/17/24 13:21:19.186081 0.00000,299.82001,0.10990,-0.19174,0.22100,0.50900,0.14600,0.48400,0.03900,179.10770,100.00000,0.05578 94 0.01597,0.00958,0.02981 -0.00049,-0.21783,0.96326 -0.07650,0.21150,-0.45150 0.01597,0.00958,0.02981 -0.00049,-0.21783,0.96326 -0.07444,0.20986,-0.44930 -0.00229,-0.01376,-0.05132
06/17/24 13:21:19.229803 0.00000,299.82001,0.10990,-0.19174,0.22100,0.50900,0.14600,0.48400,0.03900,179.10770,100.00000,0.05578 94 0.04471,-0.10646,-0.03939 -0.01105,-0.21417,0.95233 -0.07800,0.20400,-0.45000 0.04471,-0.10646,-0.03939 -0.01105,-0.21417,0.95233 -0.07499,0.20904,-0.44964 0.00796,-0.02479,-0.04266
06/17/24 13:21:19.273932 0.00000,299.82001,0.10990,-0.19174,0.22100,0.50900,0.14600,0.48400,0.03900,179.10770,100.00000,0.05578 94 0.00213,-0.03300,0.05323 0.00555,-0.21997,0.98340 -0.08250,0.21150,-0.45600 0.00213,-0.03300,0.05323 0.00555,-0.21997,0.98340 -0.07530,0.20891,-0.44970 -0.00455,0.00639,-0.05147
06/17/24 13:21:19.318047 0.00000,299.82001,0.10990,-0.19174,0.22100,0.50900,0.14600,0.48400,0.03900,179.10770,100.00000,0.05578 94 0.02662,-0.07026,0.02236 0.00873,-0.18835,0.94934 -0.07950,0.20400,-0.45300 0.02662,-0.07026,0.02236 0.00873,-0.18835,0.94934 -0.07568,0.20888,-0.44987 -0.01985,-0.03289,-0.03330
06/17/24 13:21:19.361786 0.00000,299.82001,0.10990,-0.19174,0.22100,0.50900,0.14600,0.48400,0.03900,179.10770,100.00000,0.05578 94 -0.02555,-0.02449,-0.00745 -0.01685,-0.22662,0.98010 -0.07950,0.20850,-0.45450 -0.02555,-0.02449,-0.00745 -0.01685,-0.22662,0.98010 -0.07620,0.20868,-0.45019 0.01899,0.00497,-0.04377
06/17/24 13:21:19.405895 0.00000,299.82001,0.10990,-0.19174,0.22100,0.50900,0.14600,0.48400,0.03900,179.10770,100.00000,0.05578 94 0.05323,0.02874,0.00319 0.00201,-0.21472,0.94525 -0.07350,0.21000,-0.45450 0.05323,0.02874,0.00319 0.00201,-0.21472,0.94525 -0.07614,0.20867,-0.45052 0.00125,-0.03205,-0.05183
06/17/24 13:21:19.449499 0.00000,299.82001,0.10990,-0.19174,0.22100,0.50900,0.14600,0.48400,0.03900,179.10770,100.00000,0.05578 94 -0.00426,0.06388,-0.00852 0.03101,-0.21478,0.95966 -0.07800,0.21150,-0.45450 -0.00426,0.06388,-0.00852 0.03101,-0.21478,0.95966 -0.07655,0.20876,-0.45086 -0.02541,-0.01883,-0.06856
06/17/24 13:21:19.493748 0.00000,299.82001,0.10990,-0.19174,0.22100,0.50900,0.14600,0.48400,0.03900,179.10770,100.00000,0.05578 94 0.05642,0.05217,-0.07452 0.01178,-0.21423,0.98047 -0.07950,0.20700,-0.44850 0.05642,0.05217,-0.07452 0.01178,-0.21423,0.98047 -0.07670,0.20875,-0.45099 -0.01413,0.00203,-0.05552
06/17/24 13:21:19.537828 0.00000,299.82001,0.10990,-0.19174,0.22100,0.50900,0.14600,0.48400,0.03900,179.10770,100.00000,0.05578 94 0.01278,0.00852,-0.04791 -0.02612,-0.20844,0.94897 -0.08100,0.21000,-0.45300 0.01278,0.00852,-0.04791 -0.02612,-0.20844,0.94897 -0.07674,0.20870,-0.45117 0.01789,-0.02878,-0.03311
06/17/24 13:21:19.581566 0.00000,299.82001,0.10990,-0.19174,0.22100,0.50900,0.14600,0.48400,0.03900,179.10770,100.00000,0.05578 94 0.01384,-0.01703,-0.01490 0.00635,-0.22363,0.96863 -0.08250,0.20850,-0.45300 0.01384,-0.01703,-0.01490 0.00635,-0.22363,0.96863 -0.07744,0.20893,-0.45136 -0.00209,-0.00772,-0.06062
06/17/24 13:21:19.625710 0.00000,299.82001,0.10990,-0.19174,0.22100,0.50900,0.14600,0.48400,0.03900,179.10770,100.00000,0.05578 94 0.04897,0.00745,-0.01703 -0.02551,-0.23132,0.96191 -0.07950,0.21000,-0.45450 0.04897,0.00745,-0.01703 -0.02551,-0.23132,0.96191 -0.07778,0.20854,-0.45236 0.02944,-0.01196,-0.04839
06/17/24 13:21:19.669861 0.00000,299.82001,0.10990,-0.19174,0.22100,0.50900,0.14600,0.48400,0.03900,179.10770,100.00000,0.05578 94 0.07026,-0.00958,0.03300 -0.03052,-0.22882,0.96240 -0.07800,0.20700,-0.45600 0.07026,-0.00958,0.03300 -0.03052,-0.22882,0.96240 -0.07809,0.20750,-0.45304 0.03188,-0.01185,-0.04533
06/17/24 13:21:19.713600 0.00000,299.82001,0.10990,-0.19174,0.22100,0.50900,0.14600,0.48400,0.03900,179.10770,100.00000,0.05578 94 0.01171,0.00639,0.07026 -0.00446,-0.21643,0.96271 -0.08100,0.20700,-0.45600 0.01171,0.00639,0.07026 -0.00446,-0.21643,0.96271 -0.07931,0.20706,-0.45456 0.00274,-0.01460,-0.05155
06/17/24 13:21:19.757738 0.00000,299.82001,0.10990,-0.19174,0.22100,0.50900,0.14600,0.48400,0.03900,179.10770,100.00000,0.05578 94 0.00958,0.03726,0.06814 0.01483,-0.20471,0.94513 -0.07500,0.20400,-0.45150 0.00958,0.03726,0.06814 0.01483,-0.20471,0.94513 -0.07863,0.20669,-0.45423 -0.01953,-0.03472,-0.05707
06/17/24 13:21:19.801262 0.00000,299.82001,0.10990,-0.19174,0.22100,0.50900,0.14600,0.48400,0.03900,179.10770,100.00000,0.05578 94 -0.06814,0.00213,0.03513 -0.01923,-0.24152,0.93073 -0.07200,0.19500,-0.45450 -0.06814,0.00213,0.03513 -0.01923,-0.24152,0.93073 -0.07637,0.20274,-0.45429 0.02856,-0.04102,-0.06700
06/17/24 13:21:19.845570 0.00000,299.82001,0.10990,-0.19174,0.22100,0.50900,0.14600,0.48400,0.03900,179.10770,100.00000,0.05578 94 -0.21931,-0.08198,-0.09156 0.02893,-0.19635,0.96643 -0.07200,0.20400,-0.45150 -0.21931,-0.08198,-0.09156 0.02893,-0.19635,0.96643 -0.07509,0.20533,-0.45379 -0.04450,-0.01560,-0.04858
06/17/24 13:21:19.889711 0.00000,299.82001,0.10990,-0.19174,0.22100,0.50900,0.14600,0.48400,0.03900,179.10770,100.00000,0.05578 94 0.03300,-0.07878,-0.12456 -0.03717,-0.19623,1.05298 -0.07500,0.21450,-0.45000 0.03300,-0.07878,-0.12456 -0.03717,-0.19623,1.05298 -0.07655,0.20431,-0.45191 -0.00387,0.07169,0.01048
06/17/24 13:21:19.933521 0.00000,299.82001,0.10990,-0.19174,0.22100,0.50900,0.14600,0.48400,0.03900,179.10770,100.00000,0.05578 94 0.33216,-0.00426,0.15756 0.03778,-0.31989,1.02075 -0.07350,0.20850,-0.44850 0.33216,-0.00426,0.15756 0.03778,-0.31989,1.02075 -0.07792,0.21245,-0.45507 0.02010,0.06050,-0.14362
06/17/24 13:21:19.977621 0.00000,299.82001,0.10990,-0.19174,0.22100,0.50900,0.14600,0.48400,0.03900,179.10770,100.00000,0.05578 94 0.35878,-0.07452,0.13521 0.00085,-0.16504,0.92291 -0.08250,0.19950,-0.45600 0.35878,-0.07452,0.13521 0.00085,-0.16504,0.92291 -0.07722,0.21125,-0.45418 -0.02086,-0.06286,-0.01855
06/17/24 13:21:20.021229 0.00000,299.82001,0.10990,-0.19174,0.22100,0.50900,0.14600,0.48400,0.03900,179.10770,100.00000,0.05578 94 0.07665,-0.07772,0.24380 -0.00690,-0.20105,0.88568 -0.07500,0.20100,-0.45450 0.07665,-0.07772,0.24380 -0.00690,-0.20105,0.88568 -0.07735,0.20865,-0.45507 0.01584,-0.09337,-0.05171
06/17/24 13:21:20.065485 0.00000,299.82001,0.10990,-0.19174,0.22100,0.50900,0.14600,0.48400,0.03900,179.10770,100.00000,0.05578 94 -0.00213,-0.03407,0.33536 0.01703,-0.26013,0.97815 -0.07050,0.20400,-0.45300 -0.00213,-0.03407,0.33536 0.01703,-0.26013,0.97815 -0.07692,0.20687,-0.45555 0.01423,0.00762,-0.09608
06/17/24 13:21:20.109554 0.00000,299.82001,0.10990,-0.19174,0.22100,0.50900,0.14600,0.48400,0.03900,179.10770,100.00000,0.05578 94 0.12669,-0.01810,0.41094 0.05841,-0.22455,0.99725 -0.07350,0.19200,-0.45900 0.12669,-0.01810,0.41094 0.05841,-0.22455,0.99725 -0.07573,0.20343,-0.45608 -0.04522,0.01889,-0.09042
06/17/24 13:21:20.153025 0.00000,299.82001,0.10990,-0.19174,0.22100,0.50900,0.14600,0.48400,0.03900,179.10770,100.00000,0.05578 94 0.16715,-0.03087,0.26296 0.06635,-0.18561,0.92395 -0.07500,0.19650,-0.45600 0.16715,-0.03087,0.26296 0.06635,-0.18561,0.92395 -0.07275,0.19649,-0.45701 -0.05542,-0.05997,-0.07626
06/17/24 13:21:20.197279 0.00000,299.82001,0.10990,-0.19174,0.22100,0.50900,0.14600,0.48400,0.03900,179.10770,100.00000,0.05578 94 -0.02555,-0.03620,0.23741 0.02454,-0.17798,0.97070 -0.06900,0.19950,-0.45600 -0.02555,-0.03620,0.23741 0.02454,-0.17798,0.97070 -0.06699,0.19569,-0.46166 -0.02528,-0.01412,-0.04404
06/17/24 13:21:20.240824 0.00000,299.82001,0.10990,-0.19174,0.22100,0.50900,0.14600,0.48400,0.03900,179.10770,100.00000,0.05578 94 0.06068,-0.09262,0.15543 0.00214,-0.20972,0.99908 -0.06900,0.19800,-0.46350 0.06068,-0.09262,0.15543 0.00214,-0.20972,0.99908 -0.06728,0.19600,-0.46108 0.01134,0.01933,-0.05479
06/17/24 13:21:20.284916 0.00000,299.82001,0.10990,-0.19174,0.22100,0.50900,0.14600,0.48400,0.03900,179.10770,100.00000,0.05578 94 0.06601,-0.10433,0.07452 0.01251,-0.17651,0.95392 -0.07050,0.19350,-0.46500 0.06601,-0.10433,0.07452 0.01251,-0.17651,0.95392 -0.06816,0.19482,-0.46186 -0.00256,-0.03064,-0.04012
06/17/24 13:21:20.329126 0.00000,299.82001,0.10990,-0.19174,0.22100,0.50900,0.14600,0.48400,0.03900,179.10770,100.00000,0.05578 94 0.00852,-0.04258,0.07559 0.00098,-0.14893,0.96356 -0.07650,0.18900,-0.45750 0.00852,-0.04258,0.07559 0.00098,-0.14893,0.96356 -0.06849,0.19466,-0.46202 -0.00301,-0.02506,-0.01042
06/17/24 13:21:20.372664 0.00000,299.82001,0.10990,-0.19174,0.22100,0.50900,0.14600,0.48400,0.03900,179.10770,100.00000,0.05578 94 -0.05536,0.05217,0.17566 -0.04987,-0.14386,0.96234 -0.07500,0.18750,-0.46200 -0.05536,0.05217,0.17566 -0.04987,-0.14386,0.96234 -0.07194,0.19186,-0.46278 0.03742,-0.02657,0.01778
06/17/24 13:21:20.417021 0.00000,299.82001,0.10990,-0.19174,0.22100,0.50900,0.14600,0.48400,0.03900,179.10770,100.00000,0.05578 94 -0.03620,0.03833,0.22463 -0.05011,-0.20111,1.03998 -0.08250,0.18450,-0.46800 -0.03620,0.03833,0.22463 -0.05011,-0.20111,1.03998 -0.08152,0.18559,-0.46797 0.05399,0.05876,-0.02478
06/17/24 13:21:20.460667 0.00000,299.82001,0.10990,-0.19174,0.22100,0.50900,0.14600,0.48400,0.03900,179.10770,100.00000,0.05578 94 0.22144,0.05217,0.21186 -0.08380,-0.15448,1.01526 -0.07350,0.18450,-0.47400 0.22144,0.05217,0.21186 -0.08380,-0.15448,1.01526 -0.07789,0.18475,-0.47389 0.06207,0.02825,0.02204
06/17/24 13:21:20.504831 0.00000,299.82001,0.10990,-0.19174,0.22100,0.50900,0.14600,0.48400,0.03900,179.10770,100.00000,0.05578 94 0.18524,0.08943,0.38646 -0.08374,-0.10150,0.95648 -0.07800,0.18900,-0.48300 0.18524,0.08943,0.38646 -0.08374,-0.10150,0.95648 -0.07590,0.18848,-0.48034 0.03743,-0.03608,0.04034
06/17/24 13:21:20.549177 0.00000,299.82001,0.10990,-0.19174,0.22100,0.50900,0.14600,0.48400,0.03900,179.10770,100.00000,0.05578 94 0.01703,0.08198,0.45566 -0.04718,-0.07135,0.94989 -0.06150,0.18150,-0.48450 0.01703,0.08198,0.45566 -0.04718,-0.07135,0.94989 -0.07354,0.18592,-0.48312 -0.01195,-0.04703,0.03631
06/17/24 13:21:20.592758 0.00000,299.82001,0.10990,-0.19174,0.22100,0.50900,0.14600,0.48400,0.03900,179.10770,100.00000,0.05578 94 -0.01810,0.00958,0.42904 -0.05341,-0.09491,0.98419 -0.06300,0.17400,-0.48150 -0.01810,0.00958,0.42904 -0.05341,-0.09491,0.98419 -0.07167,0.18394,-0.48276 -0.00087,-0.00987,0.01129
06/17/24 13:21:20.636923 0.00000,299.82001,0.10990,-0.19174,0.22100,0.50900,0.14600,0.48400,0.03900,179.10770,100.00000,0.05578 94 0.03833,-0.02342,0.44820 -0.06110,-0.10773,0.98126 -0.05100,0.18300,-0.47850 0.03833,-0.02342,0.44820 -0.06110,-0.10773,0.98126 -0.07001,0.18355,-0.48247 0.01295,-0.01105,-0.00459
06/17/24 13:21:20.680653 0.00000,299.82001,0.10990,-0.19174,0.22100,0.50900,0.14600,0.48400,0.03900,179.10770,100.00000,0.05578 94 -0.00532,-0.00639,0.50037 -0.08148,-0.11798,0.95715 -0.04050,0.17850,-0.48000 -0.00532,-0.00639,0.50037 -0.08148,-0.11798,0.95715 -0.05500,0.17906,-0.47970 0.03692,-0.03296,-0.01302
06/17/24 13:21:20.724802 0.00000,299.82001,0.10990,-0.19174,0.22100,0.50900,0.14600,0.48400,0.03900,179.10770,100.00000,0.05578 94 -0.00213,-0.01490,0.52273 -0.06439,-0.11572,0.97571 -0.03900,0.17700,-0.47850 -0.00213,-0.01490,0.52273 -0.06439,-0.11572,0.97571 -0.04747,0.17787,-0.47797 0.01574,-0.01575,-0.02336
06/17/24 13:21:20.768971 0.00000,299.82001,0.10990,-0.19174,0.22100,0.50900,0.14600,0.48400,0.03900,179.10770,100.00000,0.05578 94 0.02874,-0.07239,0.42159 -0.05249,-0.11279,0.97101 -0.03450,0.17700,-0.47700 0.02874,-0.07239,0.42159 -0.05249,-0.11279,0.97101 -0.04646,0.17749,-0.47778 0.00391,-0.02156,-0.03113
06/17/24 13:21:20.812767 0.00000,299.82001,0.10990,-0.19174,0.22100,0.50900,0.14600,0.48400,0.03900,179.10770,100.00000,0.05578 94 -0.02236,-0.05110,0.35026 -0.08673,-0.10773,0.97046 -0.03000,0.17400,-0.48150 -0.02236,-0.05110,0.35026 -0.08673,-0.10773,0.97046 -0.04041,0.17528,-0.47753 0.03326,-0.02042,-0.01557
06/17/24 13:21:20.856964 0.00000,299.82001,0.10990,-0.19174,0.22100,0.50900,0.14600,0.48400,0.03900,179.10770,100.00000,0.05578 94 -0.02342,-0.05004,0.24060 -0.04779,-0.09399,0.96356 -0.02850,0.17550,-0.47700 -0.02342,-0.05004,0.24060 -0.04779,-0.09399,0.96356 -0.03949,0.17536,-0.47732 -0.00858,-0.03095,-0.02114
06/17/24 13:21:20.901337 0.00000,299.82001,0.10990,-0.19174,0.22100,0.50900,0.14600,0.48400,0.03900,179.10770,100.00000,0.05578 94 -0.14053,-0.07239,0.07985 -0.06146,-0.12067,0.97156 -0.02850,0.17700,-0.46650 -0.14053,-0.07239,0.07985 -0.06146,-0.12067,0.97156 -0.03857,0.17543,-0.47696 0.01326,-0.01991,-0.03889
06/17/24 13:21:20.944937 0.00000,299.82001,0.10990,-0.19174,0.22100,0.50900,0.14600,0.48400,0.03900,179.10770,100.00000,0.05578 94 -0.25019,-0.01810,-0.02342 -0.01068,-0.18634,1.02747 -0.02700,0.17550,-0.46950 -0.25019,-0.01810,-0.02342 -0.01068,-0.18634,1.02747 -0.03723,0.17568,-0.47605 -0.01497,0.03845,-0.10922
06/17/24 13:21:20.989111 0.00000,299.82001,0.10990,-0.19174,0.22100,0.50900,0.14600,0.48400,0.03900,179.10770,100.00000,0.05578 94 -0.09582,0.13414,-0.01278 -0.03711,-0.18781,1.02032 -0.02550,0.18450,-0.46050 -0.09582,0.13414,-0.01278 -0.03711,-0.18781,1.02032 -0.02759,0.17619,-0.47039 0.00409,0.03386,-0.09398
06/17/24 13:21:21.032881 0.00000,299.82001,0.10990,-0.19174,0.22100,0.50900,0.14600,0.48400,0.03900,179.10770,100.00000,0.05578 94 0.05962,0.08836,-0.13308 0.01563,-0.18542,0.91870 -0.02850,0.17550,-0.46650 0.05962,0.08836,-0.13308 0.01563,-0.18542,0.91870 -0.02848,0.17678,-0.46714 -0.03855,-0.07129,-0.12102
06/17/24 13:21:21.077084 0.00000,299.82001,0.10990,-0.19174,0.22100,0.50900,0.14600,0.48400,0.03900,179.10770,100.00000,0.05578 94 -0.06068,-0.13734,-0.37794 0.02222,-0.19440,0.91858 -0.03300,0.19050,-0.46500 -0.06068,-0.13734,-0.37794 0.02222,-0.19440,0.91858 -0.03120,0.18512,-0.46594 -0.03534,-0.07023,-0.12786
06/17/24 13:21:21.121134 0.00000,299.82001,0.10990,-0.19174,0.22100,0.50900,0.14600,0.48400,0.03900,179.10770,100.00000,0.05578 94 -0.12988,-0.13201,-0.38646 0.07172,-0.22070,0.97601 -0.04050,0.18750,-0.46350 -0.12988,-0.13201,-0.38646 0.07172,-0.22070,0.97601 -0.03990,0.18796,-0.46261 -0.06432,-0.01033,-0.15122
06/17/24 13:21:21.164846 0.00000,299.82001,0.10990,-0.19174,0.22100,0.50900,0.14600,0.48400,0.03900,179.10770,100.00000,0.05578 94 -0.04258,0.10753,-0.38646 0.08673,-0.19122,0.98444 -0.04650,0.20250,-0.46350 -0.04258,0.10753,-0.38646 0.08673,-0.19122,0.98444 -0.04676,0.20083,-0.46297 -0.08372,-0.00423,-0.12099
06/17/24 13:21:21.208902 0.00000,299.82001,0.10990,-0.19174,0.22100,0.50900,0.14600,0.48400,0.03900,179.10770,100.00000,0.05578 94 -0.16502,0.16395,-0.34600 -0.04498,-0.19336,0.94952 -0.04650,0.19650,-0.46200 -0.16502,0.16395,-0.34600 -0.04498,-0.19336,0.94952 -0.04813,0.19868,-0.46052 0.03722,-0.03254,-0.06030
06/17/24 13:21:21.252602 0.00000,299.82001,0.10990,-0.19174,0.22100,0.50900,0.14600,0.48400,0.03900,179.10770,100.00000,0.05578 94 -0.10433,0.01065,-0.32471 -0.02570,-0.19623,0.98505 -0.05700,0.19650,-0.45600 -0.10433,0.01065,-0.32471 -0.02570,-0.19623,0.98505 -0.05160,0.20103,-0.45866 0.01781,0.00281,-0.05954
06/17/24 13:21:21.296671 0.00000,299.82001,0.10990,-0.19174,0.22100,0.50900,0.14600,0.48400,0.03900,179.10770,100.00000,0.05578 94 -0.03513,0.08836,-0.24806 0.01984,-0.20001,0.97827 -0.05700,0.20550,-0.45600 -0.03513,0.08836,-0.24806 0.01984,-0.20001,0.97827 -0.05233,0.20107,-0.45857 -0.02133,-0.00478,-0.08056
06/17/24 13:21:21.340712 0.00000,299.82001,0.10990,-0.19174,0.22100,0.50900,0.14600,0.48400,0.03900,179.10770,100.00000,0.05578 94 -0.02662,0.06707,-0.20867 0.01398,-0.21582,0.96997 -0.05700,0.20250,-0.45600 -0.02662,0.06707,-0.20867 0.01398,-0.21582,0.96997 -0.05356,0.20260,-0.45806 -0.00885,-0.01032,-0.08980
06/17/24 13:21:21.384386 0.00000,299.82001,0.10990,-0.19174,0.22100,0.50900,0.14600,0.48400,0.03900,179.10770,100.00000,0.05578 94 0.02236,0.04152,-0.23528 -0.01477,-0.20081,0.97791 -0.05850,0.20550,-0.45450 0.02236,0.04152,-0.23528 -0.01477,-0.20081,0.97791 -0.05382,0.20305,-0.45794 0.00907,-0.00344,-0.06018
06/17/24 13:21:21.428476 0.00000,299.82001,0.10990,-0.19174,0.22100,0.50900,0.14600,0.48400,0.03900,179.10770,100.00000,0.05578 94 0.05110,0.02129,-0.23635 0.02692,-0.20764,0.99591 -0.06450,0.20550,-0.45450 0.05110,0.02129,-0.23635 0.02692,-0.20764,0.99591 -0.05482,0.20326,-0.45744 -0.02403,0.01399,-0.08318
06/17/24 13:21:21.472507 0.00000,299.82001,0.10990,-0.19174,0.22100,0.50900,0.14600,0.48400,0.03900,179.10770,100.00000,0.05578 94 0.14372,0.04897,-0.28106 0.04669,-0.22461,0.97321 -0.06000,0.20700,-0.45300 0.14372,0.04897,-0.28106 0.04669,-0.22461,0.97321 -0.05855,0.20541,-0.45353 -0.02635,-0.00663,-0.11081
06/17/24 13:21:21.516094 0.00000,299.82001,0.10990,-0.19174,0.22100,0.50900,0.14600,0.48400,0.03900,179.10770,100.00000,0.05578 94 0.11817,0.07878,-0.32258 0.00360,-0.20471,0.94476 -0.07050,0.20400,-0.45450 0.11817,0.07878,-0.32258 0.00360,-0.20471,0.94476 -0.06120,0.20626,-0.45390 0.00752,-0.03616,-0.07384
06/17/24 13:21:21.560131 0.00000,299.82001,0.10990,-0.19174,0.22100,0.50900,0.14600,0.48400,0.03900,179.10770,100.00000,0.05578 94 0.01703,0.04897,-0.33003 -0.01434,-0.21429,0.95251 -0.07650,0.20850,-0.45600 0.01703,0.04897,-0.33003 -0.01434,-0.21429,0.95251 -0.06806,0.20735,-0.45549 0.02844,-0.02644,-0.06910
06/17/24 13:21:21.603661 0.00000,299.82001,0.10990,-0.19174,0.22100,0.50900,0.14600,0.48400,0.03900,179.10770,100.00000,0.05578 94 0.00958,0.07026,-0.27999 -0.02313,-0.21393,0.97620 -0.07800,0.21150,-0.45300 0.00958,0.07026,-0.27999 -0.02313,-0.21393,0.97620 -0.07403,0.20932,-0.45561 0.03166,-0.00256,-0.05808
06/17/24 13:21:21.647966 0.00000,299.82001,0.10990,-0.19174,0.22100,0.50900,0.14600,0.48400,0.03900,179.10770,100.00000,0.05578 94 0.03194,0.03194,-0.21186 -0.03723,-0.21362,0.97296 -0.08550,0.21450,-0.46500 0.03194,0.03194,-0.21186 -0.03723,-0.21362,0.97296 -0.07850,0.21176,-0.45933 0.04172,-0.00519,-0.04788
06/17/24 13:21:21.692143 0.00000,299.82001,0.10990,-0.19174,0.22100,0.50900,0.14600,0.48400,0.03900,179.10770,100.00000,0.05578 94 0.02129,-0.02449,-0.13308 -0.02844,-0.22156,0.97760 -0.08700,0.22200,-0.46350 0.02129,-0.02449,-0.13308 -0.02844,-0.22156,0.97760 -0.08388,0.21320,-0.46217 0.03709,0.00054,-0.05607
06/17/24 13:21:21.735983 0.00000,299.82001,0.10990,-0.19174,0.22100,0.50900,0.14600,0.48400,0.03900,179.10770,100.00000,0.05578 94 0.10859,-0.09475,-0.03726 -0.03784,-0.24689,0.98853 -0.09450,0.21750,-0.46950 0.10859,-0.09475,-0.03726 -0.03784,-0.24689,0.98853 -0.09157,0.21412,-0.46895 0.06085,0.01537,-0.06995
06/17/24 13:21:21.780226 0.00000,299.82001,0.10990,-0.19174,0.22100,0.50900,0.14600,0.48400,0.03900,179.10770,100.00000,0.05578 94 0.22357,-0.05430,0.17566 -0.08514,-0.19934,0.96075 -0.10350,0.21450,-0.48750 0.22357,-0.05430,0.17566 -0.08514,-0.19934,0.96075 -0.10167,0.21296,-0.48467 0.07776,-0.01824,-0.01169
06/17/24 13:21:21.823854 0.00000,299.82001,0.10990,-0.19174,0.22100,0.50900,0.14600,0.48400,0.03900,179.10770,100.00000,0.05578 94 0.11391,-0.04046,0.34068 0.10455,-0.02826,0.84869 -0.11250,0.22800,-0.49950 0.11391,-0.04046,0.34068 0.10455,-0.02826,0.84869 -0.11177,0.22490,-0.49565 -0.15890,-0.15933,0.00579
06/17/24 13:21:21.868164 0.00000,299.82001,0.10990,-0.19174,0.22100,0.50900,0.14600,0.48400,0.03900,179.10770,100.00000,0.05578 94 -0.14905,-0.17566,0.31087 0.04370,-0.11072,0.91040 -0.12300,0.20850,-0.48300 -0.14905,-0.17566,0.31087 0.04370,-0.11072,0.91040 -0.11360,0.22429,-0.49657 -0.06561,-0.08440,-0.01917
06/17/24 13:21:21.912283 0.00000,299.82001,0.10990,-0.19174,0.22100,0.50900,0.14600,0.48400,0.03900,179.10770,100.00000,0.05578 94 -0.19802,-0.13840,0.19270 0.03925,-0.17670,1.00024 -0.10350,0.21900,-0.48150 -0.19802,-0.13840,0.19270 0.03925,-0.17670,1.00024 -0.11334,0.22319,-0.49519 -0.02642,0.01485,-0.05139
06/17/24 13:21:21.955837 0.00000,299.82001,0.10990,-0.19174,0.22100,0.50900,0.14600,0.48400,0.03900,179.10770,100.00000,0.05578 94 -0.08410,0.04578,0.15011 0.05475,-0.19025,0.97119 -0.07950,0.22950,-0.47700 -0.08410,0.04578,0.15011 0.05475,-0.19025,0.97119 -0.09249,0.22766,-0.48441 -0.02554,-0.01162,-0.06972
06/17/24 13:21:22.000095 0.00000,299.82001,0.10990,-0.19174,0.22100,0.50900,0.14600,0.48400,0.03900,179.10770,100.00000,0.05578 94 -0.02449,0.14692,0.09901 0.05591,-0.18933,0.95471 -0.07800,0.22650,-0.48300 -0.02449,0.14692,0.09901 0.05591,-0.18933,0.95471 -0.07880,0.22313,-0.47989 -0.02911,-0.02812,-0.07101
06/17/24 13:21:22.043633 0.00000,299.82001,0.10990,-0.19174,0.22100,0.50900,0.14600,0.48400,0.03900,179.10770,100.00000,0.05578 94 -0.02236,0.15543,0.06175 0.01807,-0.19714,0.99335 -0.07350,0.22800,-0.48750 -0.02236,0.15543,0.06175 0.01807,-0.19714,0.99335 -0.07442,0.22541,-0.48827 -0.00111,0.01147,-0.05340
06/17/24 13:21:22.087717 0.00000,299.82001,0.10990,-0.19174,0.22100,0.50900,0.14600,0.48400,0.03900,179.10770,100.00000,0.05578 94 0.05323,0.10433,-0.00639 0.00360,-0.22052,1.01355 -0.06300,0.21600,-0.48300 0.05323,0.10433,-0.00639 0.00360,-0.22052,1.01355 -0.07367,0.22490,-0.48784 0.01679,0.03501,-0.06632
06/17/24 13:21:22.132010 0.00000,299.82001,0.10990,-0.19174,0.22100,0.50900,0.14600,0.48400,0.03900,179.10770,100.00000,0.05578 94 0.14692,0.07133,-0.02768 0.00140,-0.20990,0.97418 -0.06150,0.21750,-0.48150 0.14692,0.07133,-0.02768 0.00140,-0.20990,0.97418 -0.07266,0.22450,-0.48710 0.01722,-0.00576,-0.06544
06/17/24 13:21:22.175499 0.00000,299.82001,0.10990,-0.19174,0.22100,0.50900,0.14600,0.48400,0.03900,179.10770,100.00000,0.05578 94 0.09688,0.05430,-0.02662 -0.00842,-0.20355,0.95099 -0.06150,0.21450,-0.47550 0.09688,0.05430,-0.02662 -0.00842,-0.20355,0.95099 -0.07194,0.22370,-0.48629 0.02702,-0.02963,-0.05942
06/17/24 13:21:22.219706 0.00000,299.82001,0.10990,-0.19174,0.22100,0.50900,0.14600,0.48400,0.03900,179.10770,100.00000,0.05578 94 0.03194,-0.00852,-0.00213 -0.03357,-0.20673,0.96997 -0.06450,0.20850,-0.47550 0.03194,-0.00852,-0.00213 -0.03357,-0.20673,0.96997 -0.07058,0.22184,-0.48476 0.05022,-0.01001,-0.04594
